,accelerometerAccelerationX,accelerometerAccelerationY,accelerometerAccelerationZ,wheel_up
0,-0.0980682373046875,-0.601959228515625,-0.5163726806640625,0
1,0.0241546630859375,-0.6580810546875,-0.7120819091796875,0
2,0.00738525390625,-0.68927001953125,-0.735382080078125,0
3,0.069549560546875,-0.671966552734375,-0.739898681640625,0
4,0.0277099609375,-0.669952392578125,-0.7089385986328125,0
5,0.0087738037109375,-0.617034912109375,-0.7941131591796875,0
6,0.059844970703125,-0.6686859130859375,-0.7630157470703125,0
7,-0.0242462158203125,-0.6875762939453125,-0.6971282958984375,0
8,-0.030364990234375,-0.69818115234375,-0.7762451171875,0
9,0.0029296875,-0.6324310302734375,-0.7365875244140625,0
10,-0.1114044189453125,-0.735626220703125,-0.842315673828125,0
11,-0.24615478515625,-0.6120147705078125,-0.718780517578125,0
12,-0.1096343994140625,-0.60491943359375,-0.8737640380859375,0
13,-0.373016357421875,-0.6050872802734375,-0.9578094482421876,0
14,-0.215057373046875,-0.52423095703125,-0.727447509765625,0
15,-0.041168212890625,-0.5959014892578125,-0.9216156005859376,0
16,0.0945587158203125,-0.6370391845703125,-0.888763427734375,0
17,-0.0886688232421875,-0.54925537109375,-0.94189453125,0
18,0.2761688232421875,-0.4365692138671875,-0.9486846923828124,0
19,-0.1252593994140625,-0.497772216796875,-0.782470703125,0
20,-0.076507568359375,-0.56512451171875,-0.8786773681640625,0
21,0.1118011474609375,-0.45806884765625,-1.025665283203125,0
22,-0.1688232421875,-0.5107879638671875,-0.8040313720703125,0
23,0.0594940185546875,-0.730560302734375,-1.6471405029296882,0
24,0.0388641357421875,-0.5188446044921875,-0.4112701416015625,0
25,-0.2470550537109375,-0.670135498046875,-1.243804931640625,0
26,0.545745849609375,-0.825836181640625,-0.3455352783203125,0
27,0.0499114990234375,-0.6851959228515625,-0.76129150390625,0
28,-0.0151519775390625,-0.33404541015625,-1.078323364257812,0
29,-0.1519927978515625,-0.705322265625,-0.438720703125,0
30,0.50335693359375,-0.95599365234375,-1.170303344726562,0
31,0.088623046875,-0.5496368408203125,-0.876708984375,0
32,-0.1338653564453125,-0.38861083984375,-0.8510894775390625,0
33,0.2058258056640625,-0.790283203125,-0.5068817138671875,0
34,-0.19622802734375,-0.84173583984375,-0.7601470947265625,0
35,0.0622100830078125,-0.4835357666015625,-0.89013671875,0
36,0.0234375,-0.6142730712890625,-0.8619232177734375,0
37,-0.1048736572265625,-0.7051239013671875,-1.01556396484375,0
38,-0.03759765625,-0.5322723388671875,-0.9562530517578124,0
39,0.137054443359375,-0.6591644287109375,-0.8276214599609375,0
40,-0.0033416748046875,-0.5524749755859375,-0.699737548828125,0
41,0.0698699951171875,-0.5606689453125,-0.7870635986328125,0
42,0.0684356689453125,-0.709320068359375,-0.6954193115234375,0
43,0.0368194580078125,-0.5900115966796875,-0.94036865234375,0
44,-0.0447998046875,-0.65545654296875,-0.724578857421875,0
45,-0.007049560546875,-0.60394287109375,-0.83843994140625,0
46,0.0053253173828125,-0.68878173828125,-0.7810211181640625,0
47,-0.0437774658203125,-0.5247802734375,-0.930419921875,0
48,0.0136566162109375,-0.6028900146484375,-0.7293701171875,0
49,-0.0460205078125,-0.612396240234375,-0.849365234375,0
50,-0.08062744140625,-0.70623779296875,-0.7415771484375,0
51,-0.0739593505859375,-0.468994140625,-0.7223968505859375,0
52,0.059661865234375,-0.6142425537109375,-0.7656402587890625,0
53,-0.064910888671875,-0.6029052734375,-0.812835693359375,0
54,-0.1751251220703125,-0.657867431640625,-0.735809326171875,0
55,0.03973388671875,-0.5237884521484375,-0.7781982421875,0
56,-0.03155517578125,-0.6134490966796875,-0.8101348876953125,0
57,-0.066162109375,-0.588958740234375,-0.73785400390625,0
58,0.0623931884765625,-0.6072845458984375,-0.756195068359375,0
59,0.0470733642578125,-0.6609039306640625,-0.743011474609375,0
60,-0.033111572265625,-0.5295562744140625,-0.824432373046875,0
61,0.016754150390625,-0.5631866455078125,-0.8455352783203125,0
62,-0.08721923828125,-0.64739990234375,-0.7867431640625,0
63,-0.004791259765625,-0.697479248046875,-0.5855865478515625,0
64,-0.064697265625,-0.5464019775390625,-0.84320068359375,0
65,-0.0421295166015625,-0.5652313232421875,-0.7395477294921875,0
66,0.0377349853515625,-0.6514892578125,-0.6651611328125,0
67,-0.0181732177734375,-0.7989044189453125,-0.564605712890625,0
68,-0.140380859375,-0.580535888671875,-0.8772430419921875,0
69,-0.00494384765625,-0.5572662353515625,-0.7841033935546875,0
70,-0.06463623046875,-0.5735015869140625,-0.673980712890625,0
71,-0.021453857421875,-0.592132568359375,-0.977752685546875,0
72,-0.0234375,-0.6538238525390625,-0.7644500732421875,0
73,0.028656005859375,-0.5752105712890625,-0.665313720703125,0
74,0.1129302978515625,-0.731689453125,-0.9123687744140624,0
75,-0.1447296142578125,-0.5816650390625,-0.8195648193359375,0
76,0.0605316162109375,-0.5451507568359375,-0.7460479736328125,0
77,-0.0451507568359375,-0.631866455078125,-0.830047607421875,0
78,0.05078125,-0.7350921630859375,-0.609130859375,0
79,0.0387420654296875,-0.5740203857421875,-0.7088470458984375,0
80,-0.009307861328125,-0.5390167236328125,-0.739288330078125,0
81,0.026580810546875,-0.6301116943359375,-0.8946685791015625,0
82,-0.0048065185546875,-0.6448211669921875,-0.675018310546875,0
83,0.0546722412109375,-0.49884033203125,-0.9119110107421876,0
84,0.017364501953125,-0.6153411865234375,-0.7786865234375,0
85,0.010345458984375,-0.74359130859375,-0.6741485595703125,0
86,-0.0713958740234375,-0.4896240234375,-1.130081176757812,0
87,-0.102020263671875,-0.50335693359375,-0.809722900390625,0
88,0.0280914306640625,-0.6076202392578125,-0.8614959716796875,0
89,-0.1962432861328125,-0.589569091796875,-0.8836212158203125,0
90,-0.066802978515625,-0.5704498291015625,-0.780181884765625,0
91,-0.0223541259765625,-0.5808563232421875,-0.8135223388671875,0
92,0.0814056396484375,-0.592681884765625,-0.8770294189453125,0
93,0.0656890869140625,-0.5467071533203125,-0.954986572265625,0
94,0.1302337646484375,-0.5741119384765625,-0.789825439453125,0
95,-0.0074615478515625,-0.66815185546875,-0.6901092529296875,0
96,-0.0341644287109375,-0.654388427734375,-0.807708740234375,0
97,-0.1566619873046875,-0.61663818359375,-0.738800048828125,0
98,0.006134033203125,-0.54473876953125,-0.8361358642578125,0
99,0.024017333984375,-0.5991363525390625,-0.765625,0
100,-0.0534210205078125,-0.61376953125,-0.7497100830078125,0
101,-0.1151275634765625,-0.6124725341796875,-0.6724090576171875,0
102,-0.1712646484375,-0.4790496826171875,-0.9026336669921876,0
103,-0.0990753173828125,-0.63543701171875,-0.77984619140625,0
104,0.0955352783203125,-0.6766815185546875,-0.8169097900390625,0
105,0.080322265625,-0.7071075439453125,-0.6851043701171875,0
106,-0.0177459716796875,-0.5730743408203125,-0.8460845947265625,0
107,0.030487060546875,-0.6820526123046875,-0.718109130859375,0
108,-0.1106109619140625,-0.6679534912109375,-0.7805328369140625,0
109,-0.0660552978515625,-0.59100341796875,-0.75262451171875,0
110,-0.03887939453125,-0.5455780029296875,-0.8507843017578125,0
111,-0.0988006591796875,-0.5970001220703125,-0.8273468017578125,0
112,-0.009246826171875,-0.6977691650390625,-0.73358154296875,0
113,-0.0592803955078125,-0.6614227294921875,-0.7982635498046875,0
114,0.0283660888671875,-0.604400634765625,-0.8228912353515625,0
115,0.1168365478515625,-0.4747314453125,-0.9203033447265624,0
116,0.017913818359375,-0.73187255859375,-0.8758544921875,0
117,0.0376434326171875,-0.6283111572265625,-0.9259185791015624,0
118,-0.0020751953125,-0.5883026123046875,-0.8204345703125,0
119,-0.0039520263671875,-0.6744537353515625,-0.7349853515625,0
120,-0.05352783203125,-0.6948394775390625,-0.8217010498046875,0
121,0.043792724609375,-0.61370849609375,-0.7748260498046875,0
122,0.046783447265625,-0.46514892578125,-0.79119873046875,0
123,0.0978851318359375,-0.673675537109375,-0.7501068115234375,0
124,0.0791168212890625,-0.60931396484375,-0.750030517578125,0
125,-0.04132080078125,-0.6353912353515625,-0.94146728515625,0
126,-0.0184326171875,-0.533905029296875,-0.8144378662109375,0
127,-0.0891571044921875,-0.6567230224609375,-0.76226806640625,0
128,0.06707763671875,-0.7096099853515625,-0.65509033203125,0
129,-0.0285186767578125,-0.583648681640625,-0.8398895263671875,0
130,0.00177001953125,-0.592529296875,-0.7820587158203125,0
131,0.024444580078125,-0.594573974609375,-0.7764129638671875,0
132,-0.0381011962890625,-0.6918792724609375,-0.6600341796875,0
133,0.0374298095703125,-0.580810546875,-0.7396392822265625,0
134,-0.049591064453125,-0.6279144287109375,-0.8406982421875,0
135,-0.0443267822265625,-0.2253265380859375,-0.683746337890625,0
136,-0.0977783203125,-0.47662353515625,-0.917755126953125,0
137,0.0254669189453125,-0.544403076171875,-0.8654022216796875,0
138,-0.0589599609375,-0.5585174560546875,-0.7371063232421875,0
139,-0.0431060791015625,-0.5108642578125,-0.8796539306640625,0
140,0.0008544921875,-0.6491241455078125,-0.728729248046875,0
141,-0.036224365234375,-0.6205902099609375,-0.78558349609375,0
142,-0.056549072265625,-0.630218505859375,-0.838836669921875,0
143,0.0397491455078125,-0.7716064453125,-0.78839111328125,0
144,0.1351776123046875,-0.301544189453125,-1.175750732421875,0
145,-0.082061767578125,-0.467041015625,-0.5328826904296875,0
146,-0.1134490966796875,-1.007064819335938,-0.3861541748046875,0
147,0.0509185791015625,-1.073455810546875,-0.220855712890625,0
148,-0.0683441162109375,-1.7169952392578118,-0.767364501953125,0
149,0.0460052490234375,0.060760498046875,-3.077499389648438,0
150,-0.134246826171875,-0.3804168701171875,0.047637939453125,0
151,0.281585693359375,-0.8349761962890625,-0.172607421875,1
152,0.468658447265625,-1.214584350585938,-0.31085205078125,1
153,-0.00958251953125,-0.93463134765625,-0.2801513671875,1
154,-0.8200836181640625,-0.8329315185546875,-0.0063018798828125,1
155,0.26910400390625,-1.046249389648438,-0.159576416015625,1
156,-0.08795166015625,-1.4365692138671882,-0.394989013671875,1
157,0.267913818359375,-1.20416259765625,0.137786865234375,1
158,0.28192138671875,-0.9402923583984376,-0.4597625732421875,1
159,-0.2316131591796875,-0.738677978515625,-0.69647216796875,1
160,0.20489501953125,-1.3867340087890618,-0.4575347900390625,1
161,0.1562347412109375,-0.8678131103515625,-0.3190155029296875,1
162,0.065216064453125,-0.79388427734375,-0.5854949951171875,1
163,0.0352783203125,-0.5131072998046875,-0.3847503662109375,1
164,0.279205322265625,-0.9881439208984376,-0.8425140380859375,1
165,0.212310791015625,-1.27032470703125,0.0946502685546875,1
166,-0.0578765869140625,-1.061431884765625,-0.3588104248046875,1
167,0.2284698486328125,-1.289825439453125,-0.4179840087890625,1
168,-0.1433563232421875,-0.6933441162109375,-0.0139923095703125,1
169,-0.154815673828125,-0.903594970703125,-0.9200439453125,1
170,-0.3159637451171875,-0.9079437255859376,-0.049163818359375,1
171,0.2489471435546875,-1.073272705078125,-0.3908538818359375,1
172,-0.2025909423828125,-0.931365966796875,-0.650421142578125,1
173,0.2576751708984375,-0.883270263671875,-0.48870849609375,1
174,0.3824462890625,-1.056610107421875,0.3089447021484375,1
175,-0.5211029052734375,-0.978057861328125,-0.4003448486328125,1
176,0.2161712646484375,-0.9517822265625,-0.2654571533203125,1
177,-0.140289306640625,-1.02069091796875,-0.557891845703125,1
178,0.083587646484375,-1.31671142578125,-0.001129150390625,1
179,-0.104522705078125,-1.171890258789062,-0.314483642578125,1
180,-0.3220977783203125,-1.000732421875,0.192840576171875,1
181,0.0738525390625,-0.647979736328125,-0.2200775146484375,1
182,-0.1230316162109375,-0.7626953125,-0.5343780517578125,1
183,-0.0382232666015625,-0.829498291015625,-0.0784454345703125,1
184,0.3626556396484375,-0.757476806640625,-0.7682952880859375,1
185,-0.2429962158203125,-1.102127075195312,0.233856201171875,1
186,-0.233978271484375,-0.7374114990234375,-0.467987060546875,1
187,0.6483001708984375,-1.385467529296875,0.194244384765625,1
188,-0.049163818359375,-0.8870697021484375,-0.727294921875,1
189,-0.519195556640625,-1.519195556640625,0.3713531494140625,1
190,-0.0599822998046875,-0.7695159912109375,-0.73236083984375,1
191,0.7641754150390625,-1.227630615234375,0.20574951171875,1
192,0.149139404296875,-0.7983856201171875,-0.713287353515625,1
193,-0.8095550537109375,-0.9527130126953124,0.3476409912109375,1
194,-0.352142333984375,-0.388427734375,-0.878143310546875,1
195,0.7019805908203125,-0.9185638427734376,0.2566070556640625,1
196,0.153411865234375,0.2116546630859375,0.3531494140625,0
197,-2.700271606445312,-5.087005615234375,-6.1828460693359375,0
198,0.496917724609375,-1.4781036376953118,-0.329803466796875,0
199,-0.1117706298828125,-0.4664306640625,-1.137939453125,0
200,0.376739501953125,-0.428131103515625,-0.7133026123046875,0
201,-0.15814208984375,-0.48211669921875,-0.6444244384765625,0
202,0.31890869140625,-0.656494140625,-0.8159332275390625,0
203,0.152008056640625,-0.5468292236328125,-0.8195037841796875,0
204,0.052276611328125,-0.6379547119140625,-0.7713470458984375,0
205,0.117584228515625,-0.597747802734375,-0.9578399658203124,0
206,-0.0576629638671875,-0.5561981201171875,-1.025680541992188,0
207,0.0247802734375,-0.6826324462890625,-0.9404449462890624,0
208,-0.0043792724609375,-0.5973052978515625,-0.881317138671875,0
209,-0.0703887939453125,-0.6359710693359375,-1.02783203125,0
210,0.00079345703125,-0.56097412109375,-0.7442474365234375,0
211,-0.0260009765625,-0.5494537353515625,-0.888458251953125,0
212,-0.177703857421875,-0.5320281982421875,-0.8863983154296875,0
213,-0.1072235107421875,-0.4869842529296875,-0.6173858642578125,0
214,-0.0081787109375,-0.4170074462890625,-0.81903076171875,0
215,0.02581787109375,-0.5714263916015625,-0.746612548828125,0
216,-0.063812255859375,-0.6146240234375,-0.8281402587890625,0
217,-0.046783447265625,-0.616119384765625,-0.7477264404296875,0
218,0.08331298828125,-0.5025787353515625,-0.835205078125,0
219,-0.0563201904296875,-0.538482666015625,-0.769073486328125,0
220,-0.1071624755859375,0.0715484619140625,-0.785369873046875,0
221,0.01220703125,-0.4527587890625,-1.074127197265625,0
222,0.0046844482421875,-0.4192962646484375,-0.8876800537109375,0
223,0.168487548828125,-0.63818359375,-1.06964111328125,0
224,-0.145660400390625,-0.4971466064453125,-0.9139404296875,0
225,-0.02490234375,-0.4103546142578125,-0.9199066162109376,0
226,0.12518310546875,-0.5686798095703125,-0.855712890625,0
227,-0.120452880859375,-0.4039459228515625,-0.8668670654296875,0
228,-0.1751251220703125,-0.36474609375,-1.021713256835938,0
229,-0.0675201416015625,-0.489593505859375,-0.847015380859375,0
230,-0.0958404541015625,-0.487091064453125,-0.8870086669921875,0
231,-0.0137481689453125,-0.5300140380859375,-0.918212890625,0
232,-0.0071868896484375,-0.56787109375,-0.812530517578125,0
233,0.008453369140625,-0.536376953125,-0.888153076171875,0
234,0.009674072265625,-0.4678192138671875,-0.8055877685546875,0
235,0.0414581298828125,-0.5308380126953125,-0.875579833984375,0
236,-0.06390380859375,-0.5487518310546875,-0.8414154052734375,0
237,0.03741455078125,-0.612152099609375,-0.8162994384765625,0
238,-0.0422821044921875,-0.5867767333984375,-0.78521728515625,0
239,-0.0597686767578125,-0.527069091796875,-0.91058349609375,0
240,-0.0196533203125,-0.4306488037109375,-0.92144775390625,0
241,0.1179656982421875,-0.4661102294921875,-0.9454193115234376,0
242,-0.176666259765625,-0.67193603515625,-0.7143402099609375,0
243,-0.172576904296875,-0.6180572509765625,-0.7425689697265625,0
244,-0.1101837158203125,-0.60296630859375,-0.843597412109375,0
245,0.038848876953125,-0.5924835205078125,-0.834442138671875,0
246,0.02947998046875,-0.6279449462890625,-0.7547760009765625,0
247,0.188751220703125,-0.5997772216796875,-0.770904541015625,0
248,0.14239501953125,-0.59356689453125,-0.8549957275390625,0
249,-0.046142578125,-0.6250457763671875,-0.7227935791015625,0
250,-0.0180206298828125,-0.5423583984375,-0.752105712890625,0
251,-0.0069122314453125,-0.624725341796875,-0.7925262451171875,0
252,-0.029327392578125,-0.5359649658203125,-0.7930450439453125,0
253,0.0160980224609375,-0.5390625,-0.8527069091796875,0
254,-0.0052032470703125,-0.628173828125,-0.7318115234375,0
255,-0.024871826171875,-0.734588623046875,-0.7414703369140625,0
256,-0.090362548828125,-0.5728607177734375,-0.748382568359375,0
257,-0.045074462890625,-0.6097412109375,-0.722625732421875,0
258,-0.00750732421875,-0.579498291015625,-0.8650054931640625,0
259,0.04217529296875,-0.627044677734375,-0.8314666748046875,0
260,0.000152587890625,-0.55218505859375,-0.8013153076171875,0
261,0.05548095703125,-0.629364013671875,-0.7777862548828125,0
262,-0.0374603271484375,-0.608306884765625,-0.79400634765625,0
263,-0.0237274169921875,-0.64105224609375,-0.730194091796875,0
264,-0.006988525390625,-0.5618438720703125,-0.77734375,0
265,0.042510986328125,-0.6189422607421875,-0.812286376953125,0
266,0.00225830078125,-0.62396240234375,-0.7667236328125,0
267,-0.0131988525390625,-0.596343994140625,-0.7806243896484375,0
268,-0.046661376953125,-0.6043853759765625,-0.795166015625,0
269,-0.012298583984375,-0.661865234375,-0.76824951171875,0
270,0.0265655517578125,-0.6240234375,-0.7747344970703125,0
271,-0.039093017578125,-0.564361572265625,-0.8221893310546875,0
272,-0.0296783447265625,-0.638641357421875,-0.8224945068359375,0
273,0.0109405517578125,-0.57098388671875,-0.795440673828125,0
274,0.00177001953125,-0.620697021484375,-0.7835540771484375,0
275,0.0762939453125,-0.66253662109375,-0.7091217041015625,0
276,-0.05450439453125,-0.649871826171875,-0.87078857421875,0
277,0.025054931640625,-0.544647216796875,-0.7776947021484375,0
278,-0.01654052734375,-0.5881195068359375,-0.748992919921875,0
279,-0.009979248046875,-0.6135101318359375,-0.8349761962890625,0
280,0.041107177734375,-0.63787841796875,-0.817413330078125,0
281,-0.0181121826171875,-0.601318359375,-0.799041748046875,0
282,-0.0222015380859375,-0.592529296875,-0.7893218994140625,0
283,-0.0413970947265625,-0.5801239013671875,-0.7625732421875,0
284,0.0090789794921875,-0.673492431640625,-0.753204345703125,0
285,0.0352630615234375,-0.7441558837890625,-0.8374481201171875,0
286,0.0763702392578125,-0.5278167724609375,-0.76519775390625,0
287,0.042999267578125,-0.58929443359375,-0.7440338134765625,0
288,-0.0071563720703125,-0.5772247314453125,-0.8000335693359375,0
289,0.0034027099609375,-0.6841888427734375,-0.7764892578125,0
290,-0.00592041015625,-0.5887298583984375,-0.766510009765625,0
291,-0.0792083740234375,-0.6480560302734375,-0.74029541015625,0
292,-0.0509490966796875,-0.6316986083984375,-0.8131561279296875,0
293,-0.00439453125,-0.5733642578125,-0.768829345703125,0
294,-0.036956787109375,-0.6181488037109375,-0.747711181640625,0
295,-0.0203704833984375,-0.65765380859375,-0.738739013671875,0
296,-0.0717010498046875,-0.7374725341796875,-0.8282928466796875,0
297,0.01483154296875,-0.583099365234375,-0.8749542236328125,0
298,-0.02154541015625,-0.56976318359375,-0.8643951416015625,0
299,0.0644683837890625,-0.628753662109375,-0.712127685546875,0
300,-0.1224822998046875,-0.67608642578125,-0.75506591796875,0
301,0.02972412109375,-0.63153076171875,-0.9210205078125,0
302,-0.0677032470703125,-0.5717926025390625,-0.7782135009765625,0
303,-0.099853515625,-0.61334228515625,-0.8709716796875,0
304,0.001495361328125,-0.6403961181640625,-0.79498291015625,0
305,-0.012176513671875,-0.817047119140625,-0.7469329833984375,0
306,0.0431060791015625,-0.5774993896484375,-0.774200439453125,0
307,-0.048675537109375,-0.5264129638671875,-0.8206787109375,0
308,-0.04901123046875,-0.579864501953125,-0.726165771484375,0
309,-0.0243682861328125,-0.70672607421875,-0.836517333984375,0
310,-0.0207977294921875,-0.548492431640625,-0.946502685546875,0
311,0.0179901123046875,-0.6775054931640625,-0.75152587890625,0
312,-0.00213623046875,-0.572265625,-0.7660675048828125,0
313,0.0632781982421875,-0.6052093505859375,-0.796600341796875,0
314,0.0352935791015625,-0.7091064453125,-0.66290283203125,0
315,0.17144775390625,-0.668212890625,-0.7896575927734375,0
316,-0.0445404052734375,-0.521697998046875,-0.7628936767578125,0
317,-0.06396484375,-0.6234130859375,-0.736846923828125,0
318,0.07275390625,-0.6426239013671875,-0.7227783203125,0
319,0.0019378662109375,-0.6407470703125,-0.7795562744140625,0
320,-0.030731201171875,-0.5945587158203125,-0.8914337158203125,0
321,-0.044036865234375,-0.5826416015625,-0.7395782470703125,0
322,0.044464111328125,-0.59814453125,-0.753082275390625,0
323,0.0300140380859375,-0.6879425048828125,-0.70928955078125,0
324,0.01458740234375,-0.5989990234375,-0.7458648681640625,0
325,-0.0054473876953125,-0.582305908203125,-0.8065948486328125,0
326,0.028839111328125,-0.5915374755859375,-0.8290863037109375,0
327,-0.0026397705078125,-0.6177978515625,-0.7380828857421875,0
328,-0.0023040771484375,-0.673370361328125,-0.7021331787109375,0
329,-0.06085205078125,-0.5821685791015625,-0.7869415283203125,0
330,0.0495758056640625,-0.6302947998046875,-0.73406982421875,0
331,-0.0582427978515625,-0.5791015625,-0.79248046875,0
332,0.0657501220703125,-0.6266021728515625,-0.785125732421875,0
333,0.0710296630859375,-0.660675048828125,-0.7357025146484375,0
334,0.0124664306640625,-0.712432861328125,-0.853607177734375,0
335,0.049835205078125,-0.5497283935546875,-0.8661041259765625,0
336,0.001495361328125,-0.604644775390625,-0.8687896728515625,0
337,0.0009765625,-0.5760040283203125,-0.97119140625,0
338,-0.0533905029296875,-0.652862548828125,-0.7506561279296875,0
339,-0.0882568359375,-0.63134765625,-0.7464447021484375,0
340,-0.006195068359375,-0.6161651611328125,-0.788330078125,0
341,0.0080413818359375,-0.5899658203125,-0.7979278564453125,0
342,0.026397705078125,-0.6714630126953125,-0.7306365966796875,0
343,0.0262451171875,-0.662322998046875,-0.873687744140625,0
344,-0.085479736328125,-0.5601043701171875,-0.872161865234375,0
345,0.04400634765625,-0.530731201171875,-0.85821533203125,0
346,-0.0957489013671875,-0.587646484375,-0.767669677734375,0
347,0.0163116455078125,-0.63909912109375,-0.733001708984375,0
348,0.0572662353515625,-0.642852783203125,-0.7353363037109375,0
349,-0.0111236572265625,-0.6033477783203125,-0.8040924072265625,0
350,0.00860595703125,-0.58197021484375,-0.825286865234375,0
351,0.00946044921875,-0.5380401611328125,-0.798370361328125,0
352,-0.0064849853515625,-0.6060943603515625,-0.8880767822265625,0
353,-0.102996826171875,-0.5177001953125,-0.7762908935546875,0
354,0.077117919921875,-0.564544677734375,-0.8524932861328125,0
355,-0.0172576904296875,-0.70635986328125,-0.6738433837890625,0
356,-0.1037139892578125,-0.6406707763671875,-0.864501953125,0
357,-0.056488037109375,-0.6436309814453125,-0.85906982421875,0
358,0.0255126953125,-0.557708740234375,-0.799346923828125,0
359,-0.16436767578125,-0.5926666259765625,-0.7779541015625,0
360,0.082763671875,-0.6098175048828125,-0.92657470703125,0
361,0.048004150390625,-0.584716796875,-0.6880645751953125,0
362,-0.02081298828125,-0.61163330078125,-0.701873779296875,0
363,0.12603759765625,-0.6524810791015625,-0.8215789794921875,0
364,0.025238037109375,-0.72406005859375,-0.7763519287109375,0
365,0.1942138671875,-0.940521240234375,-0.7351226806640625,0
366,0.15887451171875,-0.3530120849609375,-0.9571685791015624,0
367,0.1731109619140625,-0.5825653076171875,-0.763580322265625,0
368,-0.14227294921875,-0.6120758056640625,-0.773193359375,0
369,-0.1508941650390625,-0.652923583984375,-0.8395233154296875,0
370,-0.048858642578125,-0.610107421875,-0.854248046875,0
371,-0.0869140625,-0.59765625,-0.6790924072265625,0
372,-0.046783447265625,-0.62841796875,-0.83544921875,0
373,-0.0432891845703125,-0.7080535888671875,-0.8042449951171875,0
374,-0.0435791015625,-0.6370849609375,-0.7474822998046875,0
375,0.003692626953125,-0.588653564453125,-0.86871337890625,0
376,-0.0336761474609375,-0.607879638671875,-0.7634429931640625,0
377,0.008087158203125,-0.61822509765625,-0.748748779296875,0
378,-0.0431671142578125,-0.5991363525390625,-0.860687255859375,0
379,0.1029510498046875,-0.6426544189453125,-0.841156005859375,0
380,0.0026397705078125,-0.5938262939453125,-0.723968505859375,0
381,0.00091552734375,-0.5810394287109375,-0.7845916748046875,0
382,-0.0132904052734375,-0.615570068359375,-0.8484954833984375,0
383,-0.031829833984375,-0.6233062744140625,-0.8009796142578125,0
384,-0.0231475830078125,-0.5905914306640625,-0.8260955810546875,0
385,0.083282470703125,-0.6228179931640625,-0.8155975341796875,0
386,0.074920654296875,-0.55731201171875,-0.715545654296875,0
387,0.039642333984375,-0.6830596923828125,-0.7208251953125,0
388,0.0587005615234375,-0.6782684326171875,-0.824005126953125,0
389,-0.0422821044921875,-0.6062469482421875,-0.704132080078125,0
390,-0.07318115234375,-0.529052734375,-0.74639892578125,0
391,-0.0206451416015625,-0.5494232177734375,-0.9174346923828124,0
392,0.0723876953125,-0.5329742431640625,-0.8103790283203125,0
393,0.0249481201171875,-0.57470703125,-0.90240478515625,0
394,0.03741455078125,-0.51348876953125,-0.917724609375,0
395,0.0460968017578125,-0.5666351318359375,-0.7608795166015625,0
396,0.0134124755859375,-0.509521484375,-0.79937744140625,0
397,0.0411376953125,-0.62451171875,-0.8444366455078125,0
398,-0.0693817138671875,-0.55657958984375,-0.85040283203125,0
399,0.064422607421875,-0.5068206787109375,-0.8409423828125,0
400,0.0341339111328125,-0.623138427734375,-0.6744537353515625,0
401,-0.0981903076171875,-0.5167694091796875,-0.9532012939453124,0
402,-0.026947021484375,-0.5920562744140625,-0.8251190185546875,0
403,-0.1456451416015625,-0.5945281982421875,-0.7381439208984375,0
404,0.0116729736328125,-0.5878448486328125,-0.694580078125,0
405,-0.0677337646484375,-0.600311279296875,-0.7912445068359375,0
406,-0.1176910400390625,-0.679779052734375,-0.77716064453125,0
407,-0.2035675048828125,-0.5569610595703125,-0.892913818359375,0
408,-0.1219329833984375,-0.593353271484375,-0.936676025390625,0
409,-0.001220703125,-0.4954071044921875,-0.8129119873046875,0
410,0.3318023681640625,-0.568206787109375,-0.9933319091796876,0
411,0.046875,-0.6282806396484375,-0.6475982666015625,0
412,0.00946044921875,-0.670257568359375,-0.8696136474609375,0
413,-0.045440673828125,-0.6007537841796875,-0.777984619140625,0
414,0.133758544921875,-0.61065673828125,-0.7755584716796875,0
415,-0.0731353759765625,-0.5262298583984375,-0.9799652099609376,0
416,0.0554046630859375,-0.6453094482421875,-0.8111419677734375,0
417,0.068511962890625,-0.6362152099609375,-0.804107666015625,0
418,-0.05291748046875,-0.6594696044921875,-0.70050048828125,0
419,-0.0247039794921875,-0.6227874755859375,-0.843414306640625,0
420,0.0121612548828125,-0.6568450927734375,-0.8361358642578125,0
421,-0.135406494140625,-0.5850677490234375,-0.834442138671875,0
422,-0.0633544921875,-0.608917236328125,-0.7209625244140625,0
423,0.077789306640625,-0.6891021728515625,-0.861053466796875,0
424,-0.174652099609375,-0.6882171630859375,-0.7260284423828125,0
425,0.0439453125,-0.529449462890625,-0.736602783203125,0
426,-0.0279388427734375,-0.6080322265625,-0.7694549560546875,0
427,-0.0549163818359375,-0.5782623291015625,-0.815216064453125,0
428,-0.1828765869140625,-0.5943603515625,-0.8447265625,0
429,-0.136688232421875,-0.6766204833984375,-0.8508148193359375,0
430,-0.0048980712890625,-0.5547943115234375,-0.781219482421875,0
431,-0.1634368896484375,-0.4564208984375,-0.91796875,0
432,-0.146240234375,-0.663848876953125,-1.030471801757812,0
433,0.0448455810546875,-0.5781707763671875,-0.727264404296875,0
434,0.0859832763671875,-0.5059967041015625,-0.833404541015625,0
435,0.1400604248046875,-0.5938720703125,-0.7118682861328125,0
436,0.137847900390625,-0.6163787841796875,-0.7113037109375,0
437,-0.3306732177734375,-0.602508544921875,-0.74444580078125,0
438,0.318084716796875,-0.5574188232421875,-0.755889892578125,0
439,0.1226959228515625,-0.71673583984375,-0.8245849609375,0
440,-0.0177154541015625,-0.6045684814453125,-0.900482177734375,0
441,-0.00555419921875,-0.6921844482421875,-0.716644287109375,0
442,-0.003082275390625,-0.5791168212890625,-0.8373260498046875,0
443,0.020904541015625,-0.4607696533203125,-0.84222412109375,0
444,0.0109710693359375,-0.5214080810546875,-0.84625244140625,0
445,0.195770263671875,-0.6337890625,-0.7926177978515625,0
446,0.085357666015625,-0.540191650390625,-0.751739501953125,0
447,-0.15447998046875,-0.6460723876953125,-0.748016357421875,0
448,-0.3089752197265625,-0.5026702880859375,-0.82183837890625,0
449,-0.1805877685546875,-0.5675811767578125,-0.8167724609375,0
450,0.1474456787109375,-0.6591949462890625,-0.7630462646484375,0
451,0.0212860107421875,-0.6468505859375,-0.7201690673828125,0
452,-0.080078125,-0.639312744140625,-0.8276519775390625,0
453,-0.033782958984375,-0.6320037841796875,-0.765167236328125,0
454,-0.0960540771484375,-0.6571807861328125,-0.768829345703125,0
455,0.081756591796875,-0.5505218505859375,-0.8187408447265625,0
456,0.106170654296875,-0.6450653076171875,-0.77435302734375,0
457,0.052276611328125,-0.73565673828125,-0.8181304931640625,0
458,0.0897674560546875,-0.64715576171875,-0.7514190673828125,0
459,-0.0862274169921875,-0.5594329833984375,-0.86114501953125,0
460,-0.039703369140625,-0.5988006591796875,-0.7283172607421875,0
461,-0.064605712890625,-0.6363372802734375,-0.864990234375,0
462,0.1168670654296875,-0.6387939453125,-0.8296051025390625,0
463,-0.0425262451171875,-0.5742034912109375,-0.736297607421875,0
464,0.0619659423828125,-0.6202545166015625,-0.7679290771484375,0
465,0.048095703125,-0.6104583740234375,-0.7669525146484375,0
466,-0.0725555419921875,-0.582916259765625,-0.8058319091796875,0
467,-0.0528717041015625,-0.6224365234375,-0.805419921875,0
468,0.0654296875,-0.598724365234375,-0.8122100830078125,0
469,0.0264892578125,-0.6211395263671875,-0.7571563720703125,0
470,0.022247314453125,-0.593353271484375,-0.7781524658203125,0
471,0.07806396484375,-0.6277618408203125,-0.841278076171875,0
472,-0.039154052734375,-0.5435028076171875,-0.8389892578125,0
473,0.0247802734375,-0.6054229736328125,-0.779937744140625,0
474,0.05169677734375,-0.65972900390625,-0.79376220703125,0
475,-0.0913848876953125,-0.6503143310546875,-0.7554168701171875,0
476,0.0930328369140625,-0.6320953369140625,-0.68829345703125,0
477,-0.092559814453125,-0.6172637939453125,-0.7160186767578125,0
478,0.1443939208984375,-0.72857666015625,-0.7212677001953125,0
479,-0.0384063720703125,-0.7555694580078125,-0.6394805908203125,0
480,0.16387939453125,-0.8317718505859375,-0.6895294189453125,0
481,-0.0113525390625,-0.461151123046875,-0.9272308349609376,0
482,0.2235260009765625,-0.3623199462890625,-0.917327880859375,0
483,-0.0864715576171875,-0.9000396728515625,-0.7667694091796875,0
484,0.02935791015625,-1.04522705078125,-0.27142333984375,0
485,-0.081787109375,-1.5928497314453118,0.3702392578125,0
486,0.11346435546875,-0.9090423583984376,-0.886199951171875,0
487,-0.3131866455078125,-0.248321533203125,-0.8052520751953125,0
488,-0.1579742431640625,0.015716552734375,-1.04449462890625,1
489,-0.0032958984375,-0.7787628173828125,0.2692108154296875,1
490,0.3669281005859375,-0.5426483154296875,-0.4969024658203125,1
491,-0.2158660888671875,-0.7130126953125,0.1805572509765625,1
492,0.1882171630859375,-0.6887054443359375,-0.254241943359375,1
493,-0.1998291015625,-0.6367950439453125,-0.8681640625,1
494,-0.2459716796875,-1.064041137695312,-0.1212158203125,1
495,-0.0023651123046875,-0.8310394287109375,-0.5280914306640625,1
496,-0.04400634765625,-1.278884887695312,0.1480865478515625,1
497,0.016326904296875,-0.898040771484375,-0.57147216796875,1
498,0.5584716796875,-0.995269775390625,-0.142059326171875,1
499,-0.0638275146484375,-1.060165405273438,-0.340789794921875,1
500,-0.542510986328125,-1.144180297851562,-0.0731353759765625,1
501,-0.2073211669921875,-0.5326690673828125,-0.412689208984375,1
502,0.6888275146484375,-1.294967651367188,-0.2310943603515625,1
503,0.1453704833984375,-1.3844146728515618,-0.4561920166015625,1
504,-0.5878143310546875,-1.225845336914062,0.0207061767578125,1
505,0.2898712158203125,-1.3516693115234382,-0.4909515380859375,1
506,0.73876953125,-1.5127410888671882,0.1183929443359375,1
507,-0.40496826171875,-0.9451446533203124,-0.6135101318359375,1
508,-0.8084259033203125,-1.182937622070312,-0.1182861328125,1
509,0.3588104248046875,-0.0460662841796875,0.297882080078125,1
510,-0.5901031494140625,0.0293731689453125,-0.3119354248046875,1
511,-1.272048950195312,0.071563720703125,-0.2105865478515625,1
512,-0.8058319091796875,1.06005859375,-3.795028686523438,0
513,0.258880615234375,-0.0279693603515625,-1.5388031005859382,0
514,0.1682281494140625,-0.6291656494140625,-0.777008056640625,0
515,0.2365264892578125,-0.5299530029296875,-0.4223480224609375,0
516,0.155792236328125,-0.661865234375,-0.9073028564453124,0
517,-0.0406341552734375,-0.5954437255859375,-0.76708984375,0
518,-0.1249237060546875,-0.5208740234375,-0.729400634765625,0
519,0.1527252197265625,-0.7978057861328125,-0.8466033935546875,0
520,0.1726226806640625,-0.64739990234375,-0.7319793701171875,0
521,-0.0916900634765625,-0.5323333740234375,-0.6255035400390625,0
522,0.1096038818359375,-0.5689239501953125,-0.9496002197265624,0
523,-0.112762451171875,-0.7266845703125,-0.88177490234375,0
524,0.0685577392578125,-0.734588623046875,-0.787872314453125,0
525,0.09271240234375,-0.329437255859375,-0.8338775634765625,0
526,-0.0286712646484375,-0.5764617919921875,-0.78717041015625,0
527,0.040863037109375,-0.7204437255859375,-0.7515106201171875,0
528,-0.126190185546875,-0.6622314453125,-0.885772705078125,0
529,0.0198974609375,-0.601165771484375,-0.794036865234375,0
530,-0.160614013671875,-0.6420745849609375,-0.917022705078125,0
531,-0.0727081298828125,-0.6136627197265625,-0.7344818115234375,0
532,-0.007904052734375,-0.596221923828125,-0.7895965576171875,0
533,0.0228118896484375,-0.5428619384765625,-0.757843017578125,0
534,0.076934814453125,-0.6705169677734375,-0.9491729736328124,0
535,-0.1109466552734375,-0.6627655029296875,-0.94384765625,0
536,0.029510498046875,-0.5935516357421875,-0.659210205078125,0
537,-0.0069427490234375,-0.66217041015625,-0.7834014892578125,0
538,-0.0869598388671875,-0.6263427734375,-0.8055267333984375,0
539,-0.0389404296875,-0.600189208984375,-0.6584014892578125,0
540,-0.103668212890625,-0.608062744140625,-0.9209747314453124,0
541,-0.024200439453125,-0.6153106689453125,-0.872955322265625,0
542,-0.0047149658203125,-0.63922119140625,-0.9016571044921876,0
543,0.0478515625,-0.569305419921875,-0.801727294921875,0
544,-0.025634765625,-0.7205657958984375,-0.749969482421875,0
545,-0.05340576171875,-0.6562652587890625,-0.6443939208984375,0
546,-0.006072998046875,-0.589813232421875,-0.8794097900390625,0
547,0.021942138671875,-0.5665130615234375,-0.822601318359375,0
548,-0.0425262451171875,-0.64013671875,-0.752410888671875,0
549,0.109100341796875,-0.580352783203125,-0.813812255859375,0
550,0.0273895263671875,-0.6255645751953125,-0.8170623779296875,0
551,0.01885986328125,-0.643463134765625,-0.77581787109375,0
552,0.0478057861328125,-0.65618896484375,-0.878936767578125,0
553,-0.0726165771484375,-0.615570068359375,-0.817962646484375,0
554,-0.0655517578125,-0.56890869140625,-0.87603759765625,0
555,0.0089569091796875,-0.63665771484375,-0.883941650390625,0
556,-0.02069091796875,-0.61212158203125,-0.764739990234375,0
557,-0.0140228271484375,-0.6338653564453125,-0.7660064697265625,0
558,0.0332489013671875,-0.670074462890625,-0.878509521484375,0
559,0.1017303466796875,-0.5736236572265625,-0.737579345703125,0
560,0.0390777587890625,-0.5946502685546875,-0.879852294921875,0
561,-0.0438995361328125,-0.6153564453125,-0.6482696533203125,0
562,-0.0325469970703125,-0.6008148193359375,-0.74169921875,0
563,-0.024322509765625,-0.6195526123046875,-0.7702789306640625,0
564,0.0201873779296875,-0.5283966064453125,-0.7648773193359375,0
565,-0.069580078125,-0.64764404296875,-0.839202880859375,0
566,0.0567779541015625,-0.532684326171875,-0.9554443359375,0
567,0.0866546630859375,-0.633697509765625,-0.7983856201171875,0
568,0.0046234130859375,-0.6248931884765625,-0.923431396484375,0
569,0.031768798828125,-0.6575164794921875,-0.55108642578125,0
570,0.0340423583984375,-0.5286865234375,-0.79541015625,0
571,0.0770721435546875,-0.6768798828125,-0.8078155517578125,0
572,-0.060943603515625,-0.561920166015625,-0.860198974609375,0
573,-0.0026702880859375,-0.6062164306640625,-0.80706787109375,0
574,-0.110992431640625,-0.6339569091796875,-0.8577117919921875,0
575,-0.0113525390625,-0.5989990234375,-0.881927490234375,0
576,-0.0424652099609375,-0.6621246337890625,-0.7420654296875,0
577,-0.116241455078125,-0.5751190185546875,-0.7639312744140625,0
578,-0.050567626953125,-0.615936279296875,-0.767852783203125,0
579,0.0286407470703125,-0.6105499267578125,-0.8441009521484375,0
580,0.0163421630859375,-0.67108154296875,-0.8905487060546875,0
581,0.06640625,-0.6197052001953125,-0.80401611328125,0
582,0.0651702880859375,-0.65216064453125,-0.722930908203125,0
583,0.06610107421875,-0.5814361572265625,-0.8224639892578125,0
584,-0.0378265380859375,-0.6366119384765625,-0.8014373779296875,0
585,0.0191650390625,-0.5328369140625,-0.721710205078125,0
586,0.0018768310546875,-0.670654296875,-0.799102783203125,0
587,-0.0037384033203125,-0.6727294921875,-0.8000640869140625,0
588,-0.0337066650390625,-0.548675537109375,-0.7660980224609375,0
589,0.0447235107421875,-0.56427001953125,-0.7761688232421875,0
590,-0.049346923828125,-0.6540069580078125,-0.832183837890625,0
591,0.0079803466796875,-0.60504150390625,-0.8300628662109375,0
592,0.0460968017578125,-0.6368560791015625,-0.699462890625,0
593,-0.0716705322265625,-0.6159210205078125,-0.866455078125,0
594,-0.015106201171875,-0.584991455078125,-0.8394317626953125,0
595,0.0048980712890625,-0.5286712646484375,-0.81011962890625,0
596,0.040191650390625,-0.6397247314453125,-0.851593017578125,0
597,-0.0175018310546875,-0.6244049072265625,-0.7146759033203125,0
598,0.0390625,-0.631256103515625,-0.7665863037109375,0
599,0.0727081298828125,-0.6467437744140625,-0.83697509765625,0
600,0.056396484375,-0.5702972412109375,-0.7743377685546875,0
601,0.0650634765625,-0.6086883544921875,-0.73492431640625,0
602,0.0572662353515625,-0.671630859375,-0.7557373046875,0
603,0.061279296875,-0.605621337890625,-0.891693115234375,0
604,-0.0198974609375,-0.6136627197265625,-0.7709197998046875,0
605,0.0191497802734375,-0.6036224365234375,-0.7042999267578125,0
606,-0.010467529296875,-0.684326171875,-0.7017669677734375,0
607,0.056732177734375,-0.590545654296875,-0.848480224609375,0
608,-0.048431396484375,-0.61224365234375,-0.8535003662109375,0
609,0.02081298828125,-0.6381072998046875,-0.818817138671875,0
610,0.05419921875,-0.5816497802734375,-0.8305816650390625,0
611,-0.036285400390625,-0.729888916015625,-0.7161407470703125,0
612,0.1293487548828125,-0.5863800048828125,-0.9422149658203124,0
613,0.044189453125,-0.591888427734375,-0.8704986572265625,0
614,0.014801025390625,-0.6046295166015625,-0.7574462890625,0
615,0.023040771484375,-0.6563720703125,-0.7124176025390625,0
616,-0.081268310546875,-0.5954132080078125,-0.8444976806640625,0
617,-0.01605224609375,-0.598876953125,-0.816619873046875,0
618,-0.0860748291015625,-0.6043701171875,-0.836639404296875,0
619,-0.035614013671875,-0.67303466796875,-0.768096923828125,0
620,0.0367431640625,-0.6038055419921875,-0.9918975830078124,0
621,-0.0478363037109375,-0.7794342041015625,-0.7389373779296875,0
622,0.012786865234375,-0.612457275390625,-0.5517578125,0
623,-0.0462493896484375,-0.50396728515625,-0.6705780029296875,0
624,0.0658111572265625,-0.2990570068359375,-0.8687896728515625,0
625,-0.0406951904296875,-0.5843963623046875,-0.9326171875,0
626,-0.0252685546875,-0.5173492431640625,-0.993560791015625,0
627,0.0772857666015625,-0.5547027587890625,-0.771575927734375,0
628,-0.0076904296875,-0.62554931640625,-0.737579345703125,0
629,-0.1425018310546875,-0.5227203369140625,-0.732635498046875,0
630,-0.059356689453125,-0.58953857421875,-0.904296875,0
631,-4.57763671875e-05,-0.5836029052734375,-0.8062286376953125,0
632,0.0286712646484375,-0.5968017578125,-0.737213134765625,0
633,0.003662109375,-0.612091064453125,-0.8929595947265625,0
634,-0.0057525634765625,-0.611724853515625,-0.740447998046875,0
635,-0.0793609619140625,-0.743011474609375,-0.7003631591796875,0
636,0.0511932373046875,-0.5350341796875,-0.910430908203125,0
637,-0.098785400390625,-0.5212860107421875,-0.7813568115234375,0
638,-0.0597686767578125,-0.68115234375,-0.83013916015625,0
639,-0.0706024169921875,-0.656005859375,-0.72869873046875,0
640,0.1589813232421875,-0.5952301025390625,-0.7065887451171875,0
641,0.015716552734375,-0.4864959716796875,-0.91900634765625,0
642,0.077972412109375,-0.5774078369140625,-0.852264404296875,0
643,0.03271484375,-0.7213287353515625,-0.6139373779296875,0
644,0.0164031982421875,-0.5565032958984375,-0.86712646484375,0
645,-0.044708251953125,-0.6093902587890625,-0.73541259765625,0
646,-0.0839080810546875,-0.543670654296875,-0.81695556640625,0
647,0.02923583984375,-0.575164794921875,-0.8983306884765625,0
648,0.0535888671875,-0.5522918701171875,-0.7823486328125,0
649,-0.0239105224609375,-0.5459136962890625,-0.8550872802734375,0
650,-0.01959228515625,-0.52606201171875,-0.875946044921875,0
651,0.036407470703125,-0.618194580078125,-0.8184967041015625,0
652,-0.119537353515625,-0.575469970703125,-0.790435791015625,0
653,-0.0194091796875,-0.614471435546875,-0.713714599609375,0
654,0.0324859619140625,-0.5756378173828125,-0.838134765625,0
655,-0.0341949462890625,-0.6286163330078125,-0.845733642578125,0
656,-0.0268096923828125,-0.5966033935546875,-0.7779541015625,0
657,-0.0134429931640625,-0.6298828125,-0.8618927001953125,0
658,0.02215576171875,-0.6047210693359375,-0.8466339111328125,0
659,-0.0200042724609375,-0.638824462890625,-0.7050933837890625,0
660,0.002899169921875,-0.6253509521484375,-0.7647247314453125,0
661,0.0343017578125,-0.6280517578125,-0.7362060546875,0
662,0.038818359375,-0.64642333984375,-0.7265625,0
663,0.027862548828125,-0.6100311279296875,-0.8950042724609375,0
664,0.0106658935546875,-0.621551513671875,-0.7069091796875,0
665,0.0196685791015625,-0.6819000244140625,-0.73114013671875,0
666,-0.0169525146484375,-0.65185546875,-0.7595977783203125,0
667,-0.0223541259765625,-0.546417236328125,-0.8957366943359375,0
668,0.030120849609375,-0.6066436767578125,-0.76177978515625,0
669,0.0115203857421875,-0.61346435546875,-0.9020233154296876,0
670,-0.0180511474609375,-0.58575439453125,-0.7599945068359375,0
671,-0.028778076171875,-0.631622314453125,-0.699798583984375,0
672,-0.062744140625,-0.574371337890625,-0.8206024169921875,0
673,0.03240966796875,-0.697845458984375,-0.721038818359375,0
674,-0.03680419921875,-0.6656341552734375,-0.6685333251953125,0
675,0.0355377197265625,-0.6475677490234375,-0.8146820068359375,0
676,0.05047607421875,-0.62353515625,-0.744354248046875,0
677,-0.0336761474609375,-0.60302734375,-0.8276519775390625,0
678,0.005035400390625,-0.622344970703125,-0.7851409912109375,0
679,-0.0662384033203125,-0.6375732421875,-0.790618896484375,0
680,-0.0185394287109375,-0.6006927490234375,-0.72802734375,0
681,0.0022430419921875,-0.661407470703125,-0.70001220703125,0
682,-0.0540771484375,-0.55780029296875,-0.8087158203125,0
683,0.0275726318359375,-0.588897705078125,-0.783660888671875,0
684,-0.1145477294921875,-0.5809783935546875,-0.7839813232421875,0
685,-0.0696563720703125,-0.65338134765625,-0.8292999267578125,0
686,-0.02459716796875,-0.608367919921875,-0.835601806640625,0
687,0.0520172119140625,-0.642608642578125,-0.798797607421875,0
688,-0.05426025390625,-0.6107635498046875,-0.7452850341796875,0
689,-0.0025634765625,-0.66015625,-0.7478790283203125,0
690,0.0558013916015625,-0.6645660400390625,-0.7253265380859375,0
691,0.16064453125,-0.6221771240234375,-0.7572174072265625,0
692,0.0598297119140625,-0.6909027099609375,-0.73809814453125,0
693,-0.0911712646484375,-0.634246826171875,-0.7316741943359375,0
694,0.0735015869140625,-0.6615142822265625,-0.7686767578125,0
695,0.0438385009765625,-0.62542724609375,-0.8045806884765625,0
696,0.1250457763671875,-0.6314697265625,-0.765533447265625,0
697,-0.0457611083984375,-0.6013641357421875,-0.840576171875,0
698,-0.047149658203125,-0.6234893798828125,-0.8387451171875,0
699,-0.0138397216796875,-0.60626220703125,-0.797882080078125,0
700,0.026519775390625,-0.6358184814453125,-0.7190399169921875,0
701,-0.1540374755859375,-0.648773193359375,-0.693511962890625,0
702,-0.0490570068359375,-0.60626220703125,-0.720001220703125,0
703,0.0495147705078125,-0.6361236572265625,-0.7928466796875,0
704,-0.145477294921875,-0.65789794921875,-0.7399749755859375,0
705,-0.0319976806640625,-0.6793060302734375,-0.7099456787109375,0
706,-0.0662994384765625,-0.6396942138671875,-0.7725372314453125,0
707,-0.0118865966796875,-0.5938720703125,-0.7370758056640625,0
708,0.022369384765625,-0.6390533447265625,-0.8791656494140625,0
709,0.02667236328125,-0.6555633544921875,-0.6726837158203125,0
710,-0.037750244140625,-0.601226806640625,-0.7366943359375,0
711,0.0726165771484375,-0.65679931640625,-0.78558349609375,0
712,0.048309326171875,-0.6871795654296875,-0.8006134033203125,0
713,-0.03607177734375,-0.6755523681640625,-0.7803497314453125,0
714,0.0346527099609375,-0.6498260498046875,-0.7828826904296875,0
715,0.0589752197265625,-0.63916015625,-0.7387237548828125,0
716,0.0219573974609375,-0.6261444091796875,-0.7313385009765625,0
717,0.017059326171875,-0.6186981201171875,-0.724212646484375,0
718,-0.0011138916015625,-0.6460418701171875,-0.7532501220703125,0
719,0.06878662109375,-0.6447906494140625,-0.7346038818359375,0
720,-0.0477752685546875,-0.6929779052734375,-0.7457122802734375,0
721,0.0143280029296875,-0.6604766845703125,-0.7440338134765625,0
722,-0.04119873046875,-0.6280059814453125,-0.76019287109375,0
723,-0.0151519775390625,-0.598480224609375,-0.8732147216796875,0
724,-0.118804931640625,-0.6229095458984375,-0.748260498046875,0
725,0.0278472900390625,-0.625396728515625,-0.7877655029296875,0
726,-0.0106353759765625,-0.609130859375,-0.7843170166015625,0
727,-0.0549163818359375,-0.6501312255859375,-0.72607421875,0
728,0.00823974609375,-0.64935302734375,-0.7473602294921875,0
729,-0.0437164306640625,-0.6772613525390625,-0.774322509765625,0
730,-0.006866455078125,-0.7005157470703125,-0.774810791015625,0
731,-0.114776611328125,-0.671234130859375,-0.754302978515625,0
732,0.005645751953125,-0.5677337646484375,-0.8112030029296875,0
733,0.1954803466796875,-0.69305419921875,-0.8166046142578125,0
734,-0.009124755859375,-0.6467742919921875,-0.7457275390625,0
735,0.1301727294921875,-0.733001708984375,-0.660247802734375,0
736,-0.055694580078125,-0.64752197265625,-0.81134033203125,0
737,-0.0400238037109375,-0.6302337646484375,-0.757720947265625,0
738,0.0428009033203125,-0.6512451171875,-0.694580078125,0
739,0.0837860107421875,-0.642364501953125,-0.691131591796875,0
740,-0.0052947998046875,-0.6538238525390625,-0.835479736328125,0
741,-0.111572265625,-0.5399322509765625,-0.8107757568359375,0
742,0.07830810546875,-0.6280975341796875,-0.8065185546875,0
743,-0.0337371826171875,-0.6393890380859375,-0.7415313720703125,0
744,-0.0375518798828125,-0.6060333251953125,-0.7701416015625,0
745,0.1208648681640625,-0.57470703125,-0.7919464111328125,0
746,0.081573486328125,-0.6337432861328125,-0.826080322265625,0
747,-0.0060272216796875,-0.68084716796875,-0.7410430908203125,0
748,0.1052398681640625,-0.6414642333984375,-0.7064666748046875,0
749,-0.0680999755859375,-0.6634979248046875,-0.8372955322265625,0
750,-0.0493011474609375,-0.5856781005859375,-0.8729248046875,0
751,-0.01708984375,-0.600555419921875,-0.8043212890625,0
752,-0.1003875732421875,-0.6022491455078125,-0.7796783447265625,0
753,0.052947998046875,-0.67572021484375,-0.730499267578125,0
754,0.036956787109375,-0.6311798095703125,-0.788665771484375,0
755,-0.0216827392578125,-0.6186981201171875,-0.8016357421875,0
756,-0.0794830322265625,-0.6037750244140625,-0.7730255126953125,0
757,0.0209503173828125,-0.61065673828125,-0.819091796875,0
758,-0.0548858642578125,-0.6198883056640625,-0.730133056640625,0
759,0.0284423828125,-0.6186981201171875,-0.87542724609375,0
760,0.044342041015625,-0.6100311279296875,-0.7948455810546875,0
761,-0.0959014892578125,-0.6865386962890625,-0.7456207275390625,0
762,0.063934326171875,-0.648468017578125,-0.89208984375,0
763,-0.08160400390625,-0.6689300537109375,-0.79205322265625,0
764,-0.1055450439453125,-0.642669677734375,-0.7347259521484375,0
765,0.0219268798828125,-0.617279052734375,-0.786773681640625,0
766,0.01629638671875,-0.5846099853515625,-0.795745849609375,0
767,-0.0668487548828125,-0.654693603515625,-0.734283447265625,0
768,0.1303253173828125,-0.65338134765625,-0.736358642578125,0
769,-0.0711212158203125,-0.6616668701171875,-0.7097320556640625,0
770,-0.067291259765625,-0.5588531494140625,-0.7844390869140625,0
771,0.00531005859375,-0.6550445556640625,-0.7237091064453125,0
772,-0.0984344482421875,-0.6372833251953125,-0.7753753662109375,0
773,-0.00811767578125,-0.623077392578125,-0.799407958984375,0
774,-0.02667236328125,-0.6131439208984375,-0.786712646484375,0
775,0.1038665771484375,-0.6815338134765625,-0.73065185546875,0
776,0.0151519775390625,-0.7159423828125,-0.766143798828125,0
777,-0.0511322021484375,-0.664581298828125,-0.7245635986328125,0
778,0.116668701171875,-0.704437255859375,-0.6718292236328125,0
779,-0.0659332275390625,-0.699432373046875,-0.7068634033203125,0
780,0.09893798828125,-0.53179931640625,-1.1248779296875,0
781,-0.1061248779296875,-0.550872802734375,-0.6417083740234375,0
782,-0.0138092041015625,-1.024063110351562,-0.326934814453125,0
783,0.0088348388671875,-1.01495361328125,-0.201934814453125,0
784,-0.025054931640625,-1.3628082275390618,0.4083099365234375,0
785,-0.1974334716796875,-1.17431640625,-2.471054077148438,0
786,-0.370208740234375,-0.8747100830078125,-0.5774078369140625,0
787,0.2715301513671875,-0.289764404296875,-0.3143157958984375,1
788,0.096893310546875,-1.23724365234375,-0.139984130859375,1
789,0.0964508056640625,-0.82574462890625,-0.376190185546875,1
790,0.01025390625,-0.6726531982421875,-0.17962646484375,1
791,-0.188385009765625,-0.6171875,-0.2377166748046875,1
792,-0.041717529296875,-1.251663208007812,-0.4486541748046875,1
793,0.2169952392578125,-0.7950439453125,-0.1368255615234375,1
794,-0.5261383056640625,-0.792205810546875,-0.6506805419921875,1
795,0.002044677734375,-1.101776123046875,-0.05633544921875,1
796,0.3641815185546875,-0.6420135498046875,-0.0455474853515625,1
797,-0.422515869140625,-1.034469604492188,0.02947998046875,1
798,-0.1890106201171875,-0.6865692138671875,-0.4791412353515625,1
799,-0.299102783203125,-0.754852294921875,-0.547454833984375,1
800,0.3670196533203125,-1.237457275390625,0.20538330078125,1
801,0.208465576171875,-0.3158721923828125,-0.1778106689453125,1
802,-0.209381103515625,-0.3928680419921875,-0.4566650390625,1
803,0.15594482421875,-0.3513336181640625,0.4443511962890625,0
804,-2.637619018554688,-1.7892913818359382,-1.226837158203125,0
805,0.1922454833984375,-1.8321685791015616,-1.141647338867188,0
806,-0.6620330810546875,-0.23651123046875,-0.68865966796875,0
807,0.7870941162109375,-0.221282958984375,-0.1445465087890625,0
808,0.15228271484375,-0.282440185546875,-0.6441192626953125,0
809,0.0549468994140625,-0.6915435791015625,-0.582275390625,0
810,0.2582855224609375,-0.50531005859375,-1.061187744140625,0
811,-0.047271728515625,-0.5284576416015625,-0.9764862060546876,0
812,0.100982666015625,-0.5811767578125,-1.044692993164062,0
813,-0.167327880859375,-0.5956268310546875,-0.8513641357421875,0
814,0.1117095947265625,-0.3770599365234375,-0.913360595703125,0
815,-0.100616455078125,-0.520751953125,-0.854095458984375,0
816,0.1383056640625,-0.59869384765625,-0.70904541015625,0
817,-0.04180908203125,-0.436370849609375,-0.748382568359375,0
818,0.0014190673828125,-0.6276702880859375,-1.268325805664062,0
819,0.0222015380859375,-0.6224212646484375,-0.836456298828125,0
820,-0.2598876953125,-0.44671630859375,-0.9034271240234376,0
821,-0.2276763916015625,-0.4880218505859375,-1.096710205078125,0
822,-0.1154937744140625,-0.4647979736328125,-0.86248779296875,0
823,0.0413360595703125,-0.54644775390625,-0.8849029541015625,0
824,0.015411376953125,-0.64251708984375,-1.121383666992188,0
825,-0.1631011962890625,-0.6516571044921875,-0.6042022705078125,0
826,-0.074676513671875,-0.4643402099609375,-0.8408203125,0
827,-0.2288360595703125,-0.4112091064453125,-0.777099609375,0
828,-0.138275146484375,-0.62677001953125,-0.7621307373046875,0
829,-0.1156005859375,-0.6209869384765625,-0.748779296875,0
830,-0.1337127685546875,-0.5515289306640625,-0.9977264404296876,0
831,-0.13189697265625,-0.6111297607421875,-0.8598175048828125,0
832,-0.0255126953125,-0.556671142578125,-0.71466064453125,0
833,-0.106170654296875,-0.5214080810546875,-0.8694610595703125,0
834,-0.0149993896484375,-0.6044158935546875,-0.877166748046875,0
835,-0.06787109375,-0.493927001953125,-0.997772216796875,0
836,-0.106109619140625,-0.6533203125,-0.8043975830078125,0
837,0.2028656005859375,-0.4693603515625,-0.8925933837890625,0
838,0.0221099853515625,-0.396087646484375,-1.108184814453125,0
839,0.08319091796875,-0.5733642578125,-0.8106689453125,0
840,0.0153350830078125,-0.626251220703125,-0.7189178466796875,0
841,-0.0026702880859375,-0.528106689453125,-0.9179840087890624,0
842,0.1649017333984375,-0.56048583984375,-0.8591766357421875,0
843,-0.024505615234375,-0.6174163818359375,-0.7506103515625,0
844,0.036834716796875,-0.5614166259765625,-0.7143096923828125,0
845,-0.079071044921875,-0.65313720703125,-0.780548095703125,0
846,-0.0110931396484375,-0.6050262451171875,-0.727294921875,0
847,-0.0026092529296875,-0.6598358154296875,-0.8553924560546875,0
848,-0.1115875244140625,-0.6521759033203125,-0.7554931640625,0
849,-0.0587615966796875,-0.5837554931640625,-0.85687255859375,0
850,0.09619140625,-0.5745391845703125,-0.79119873046875,0
851,-0.0130157470703125,-0.5632476806640625,-0.736968994140625,0
852,0.148651123046875,-0.6495361328125,-0.700164794921875,0
853,0.05609130859375,-0.63922119140625,-0.7652435302734375,0
854,-0.0393829345703125,-0.6038818359375,-0.8609466552734375,0
855,0.1006011962890625,-0.5421142578125,-0.9008331298828124,0
856,-0.05072021484375,-0.565185546875,-0.8701934814453125,0
857,-0.0019989013671875,-0.5962066650390625,-0.74798583984375,0
858,0.017578125,-0.6797637939453125,-0.5942840576171875,0
859,0.0760650634765625,-0.634796142578125,-0.9127960205078124,0
860,-0.1154632568359375,-0.5912322998046875,-0.7685089111328125,0
861,0.010772705078125,-0.5813140869140625,-0.7881622314453125,0
862,0.075653076171875,-0.6275482177734375,-0.7081451416015625,0
863,-0.04315185546875,-0.6674957275390625,-0.7671356201171875,0
864,-0.0287933349609375,-0.5998077392578125,-0.7689971923828125,0
865,0.0534210205078125,-0.649322509765625,-0.665557861328125,0
866,-0.000396728515625,-0.5771942138671875,-0.7528533935546875,0
867,0.0181427001953125,-0.650482177734375,-0.80731201171875,0
868,-0.0686492919921875,-0.6234893798828125,-0.740142822265625,0
869,0.001708984375,-0.657073974609375,-0.7850189208984375,0
870,0.0250244140625,-0.6028900146484375,-0.731719970703125,0
871,0.0296783447265625,-0.636077880859375,-0.761199951171875,0
872,0.1511993408203125,-0.5689544677734375,-0.831939697265625,0
873,0.0460205078125,-0.597900390625,-0.76904296875,0
874,0.0102081298828125,-0.6419219970703125,-0.7475738525390625,0
875,-0.0697021484375,-0.6611785888671875,-0.7308502197265625,0
876,0.0139312744140625,-0.6319122314453125,-0.8287200927734375,0
877,-0.0470428466796875,-0.6400909423828125,-0.7592010498046875,0
878,-0.0135345458984375,-0.59307861328125,-0.809417724609375,0
879,0.0407562255859375,-0.553466796875,-0.8381805419921875,0
880,0.0522003173828125,-0.653564453125,-0.8291778564453125,0
881,-0.0437774658203125,-0.50531005859375,-0.955169677734375,0
882,-0.05181884765625,-0.5789337158203125,-0.8375701904296875,0
883,-0.077667236328125,-0.66717529296875,-0.6707916259765625,0
884,-0.083709716796875,-0.625274658203125,-0.7200927734375,0
885,0.1226654052734375,-0.582672119140625,-0.8278350830078125,0
886,-0.0843505859375,-0.5843505859375,-0.7825775146484375,0
887,-0.094696044921875,-0.6190338134765625,-0.7725982666015625,0
888,0.072418212890625,-0.5872650146484375,-0.7488250732421875,0
889,0.10577392578125,-0.6373748779296875,-0.6557769775390625,0
890,0.1178741455078125,-0.63812255859375,-0.782379150390625,0
891,-0.021270751953125,-0.6457061767578125,-0.79913330078125,0
892,0.0237274169921875,-0.6456298828125,-0.7594451904296875,0
893,0.0416412353515625,-0.58660888671875,-0.795989990234375,0
894,-0.04669189453125,-0.5770721435546875,-0.830963134765625,0
895,0.11212158203125,-0.647186279296875,-0.6897735595703125,0
896,-0.064361572265625,-0.6088714599609375,-0.8598175048828125,0
897,0.0301971435546875,-0.694000244140625,-0.709564208984375,0
898,0.079864501953125,-0.6330108642578125,-0.8099517822265625,0
899,-0.0876617431640625,-0.6790924072265625,-0.693389892578125,0
900,0.0387420654296875,-0.6088409423828125,-0.7830810546875,0
901,0.0401458740234375,-0.5715484619140625,-0.7869720458984375,0
902,0.0239715576171875,-0.5790252685546875,-0.8399505615234375,0
903,-0.0211944580078125,-0.590789794921875,-0.8078460693359375,0
904,-0.0522308349609375,-0.619537353515625,-0.7608795166015625,0
905,0.01470947265625,-0.620361328125,-0.7682342529296875,0
906,0.0015106201171875,-0.65960693359375,-0.750091552734375,0
907,-0.01165771484375,-0.69268798828125,-0.743927001953125,0
908,0.099029541015625,-0.617706298828125,-0.7887725830078125,0
909,0.044830322265625,-0.6515655517578125,-0.761932373046875,0
910,-0.046356201171875,-0.6055755615234375,-0.7598419189453125,0
911,-0.006622314453125,-0.5843505859375,-0.7440948486328125,0
912,0.023681640625,-0.6346282958984375,-0.809356689453125,0
913,0.0223236083984375,-0.6315765380859375,-0.7684173583984375,0
914,-0.013519287109375,-0.62744140625,-0.7103424072265625,0
915,0.022216796875,-0.675140380859375,-0.7635040283203125,0
916,-0.0250701904296875,-0.66729736328125,-0.7635345458984375,0
917,-0.0549774169921875,-0.6502227783203125,-0.7587432861328125,0
918,-0.0400238037109375,-0.684173583984375,-0.75701904296875,0
919,0.04351806640625,-0.610382080078125,-0.7662200927734375,0
920,0.025665283203125,-0.6167144775390625,-0.7782745361328125,0
921,-0.02850341796875,-0.612945556640625,-0.728485107421875,0
922,0.075225830078125,-0.641815185546875,-0.7608489990234375,0
923,0.06097412109375,-0.644744873046875,-0.82916259765625,0
924,-0.0698394775390625,-0.670013427734375,-0.7261962890625,0
925,0.0230712890625,-0.6613311767578125,-0.6932220458984375,0
926,0.0178070068359375,-0.663055419921875,-0.7669830322265625,0
927,0.025634765625,-0.63177490234375,-0.7447662353515625,0
928,0.0503387451171875,-0.5847625732421875,-0.7769622802734375,0
929,0.0089111328125,-0.6919708251953125,-0.714141845703125,0
930,0.0899200439453125,-0.6130828857421875,-0.727020263671875,0
931,0.0076904296875,-0.659210205078125,-0.71044921875,0
932,-0.003448486328125,-0.6582794189453125,-0.757904052734375,0
933,-0.006744384765625,-0.6128692626953125,-0.78802490234375,0
934,-0.0464630126953125,-0.6538238525390625,-0.7888031005859375,0
935,0.078765869140625,-0.649749755859375,-0.78277587890625,0
936,-0.023529052734375,-0.6045074462890625,-0.774749755859375,0
937,-0.0549774169921875,-0.6743011474609375,-0.7704010009765625,0
938,0.0196533203125,-0.667144775390625,-0.7008819580078125,0
939,0.0288848876953125,-0.6083526611328125,-0.7857666015625,0
940,-0.020233154296875,-0.63983154296875,-0.7946929931640625,0
941,0.030181884765625,-0.6199493408203125,-0.80621337890625,0
942,0.021881103515625,-0.643798828125,-0.7518768310546875,0
943,-0.1077117919921875,-0.5976104736328125,-0.79949951171875,0
944,0.0248870849609375,-0.5972900390625,-0.8341064453125,0
945,-0.0744171142578125,-0.5955657958984375,-0.8620758056640625,0
946,0.0380706787109375,-0.644256591796875,-0.78936767578125,0
947,-0.0508880615234375,-0.619293212890625,-0.7880096435546875,0
948,-0.0128936767578125,-0.618927001953125,-0.793121337890625,0
949,-0.0455780029296875,-0.6391754150390625,-0.7992401123046875,0
950,0.088714599609375,-0.592681884765625,-0.7594146728515625,0
951,-0.0631103515625,-0.582611083984375,-0.741943359375,0
952,0.1090545654296875,-0.6124725341796875,-0.7405853271484375,0
953,-0.0404052734375,-0.6951446533203125,-0.73382568359375,0
954,0.0521697998046875,-0.724609375,-0.734039306640625,0
955,0.1294097900390625,-0.6231842041015625,-0.81903076171875,0
956,-0.0626373291015625,-0.62481689453125,-0.7942962646484375,0
957,0.0078125,-0.6029205322265625,-0.848175048828125,0
958,0.0786895751953125,-0.6042633056640625,-0.8763580322265625,0
959,-0.0224761962890625,-0.461395263671875,-1.004562377929688,0
960,0.0460968017578125,-0.90216064453125,-0.4468536376953125,0
961,-0.09454345703125,-0.8935394287109375,-0.4793243408203125,0
962,-0.034912109375,-0.8752899169921875,-0.3977203369140625,0
963,-0.1026763916015625,-1.3486480712890618,-0.0547332763671875,0
964,-0.1674041748046875,-1.2252197265625,-2.184951782226562,0
965,0.21881103515625,-0.625152587890625,-0.7683258056640625,0
966,-0.137451171875,-0.5867156982421875,-0.312103271484375,1
967,0.4474029541015625,-0.835296630859375,-0.2756195068359375,1
968,0.105194091796875,-0.811004638671875,-0.1128997802734375,1
969,0.3276519775390625,-0.83367919921875,-0.238800048828125,1
970,-0.03802490234375,-1.081390380859375,-0.4405670166015625,1
971,-0.0264434814453125,-1.001632690429688,-0.359710693359375,1
972,-0.1085357666015625,-1.120254516601562,-0.2150421142578125,1
973,0.1199188232421875,-0.800048828125,-0.2878570556640625,1
974,-0.12982177734375,-0.80072021484375,-0.196502685546875,1
975,-0.1605072021484375,-0.7601165771484375,-0.1932525634765625,1
976,0.301666259765625,-1.039016723632812,-0.2371368408203125,1
977,-0.764862060546875,-1.283660888671875,0.11871337890625,1
978,-0.3638458251953125,-1.01605224609375,-0.1723175048828125,1
979,0.264862060546875,-0.6573333740234375,-0.4346923828125,1
980,0.2309722900390625,-1.17449951171875,-0.1031951904296875,1
981,0.1780242919921875,-0.8776702880859375,-0.0183868408203125,1
982,-0.370849609375,-1.048675537109375,-0.781219482421875,1
983,0.240936279296875,-0.9434967041015624,0.083038330078125,1
984,0.032623291015625,-1.0579833984375,-0.2021636962890625,1
985,-0.204010009765625,-0.593048095703125,-0.8874969482421875,1
986,-0.0840301513671875,-1.185440063476562,0.2098388671875,1
987,0.1143646240234375,-0.3887481689453125,-0.0189361572265625,1
988,-0.3871612548828125,-0.8863372802734375,-0.516845703125,1
989,-0.0383148193359375,-1.35357666015625,-0.0272979736328125,1
990,-0.013916015625,-0.2113037109375,-0.39239501953125,1
991,-0.06085205078125,-0.567047119140625,-0.478790283203125,1
992,0.1306304931640625,-1.15264892578125,0.253936767578125,1
993,-0.0591888427734375,-0.641693115234375,-0.4174957275390625,1
994,-0.3900909423828125,-0.6307220458984375,-0.2183990478515625,0
995,-0.53173828125,-0.4652252197265625,-7.439361572265625,0
996,0.6100311279296875,-0.613861083984375,-1.174560546875,0
997,0.5475311279296875,-0.4667205810546875,-1.001113891601562,0
998,0.165374755859375,-0.4663848876953125,-0.5123748779296875,0
999,0.0537872314453125,-0.4115447998046875,-0.7787628173828125,0
1000,0.0521240234375,-0.600250244140625,-0.72491455078125,0
1001,-0.01519775390625,-0.6155548095703125,-0.632598876953125,0
1002,0.090301513671875,-0.4976348876953125,-1.009262084960938,0
1003,-0.020355224609375,-0.675567626953125,-0.7465362548828125,0
1004,0.0374755859375,-0.3366851806640625,-1.472808837890625,0
1005,0.0157318115234375,-0.7357025146484375,-0.934417724609375,0
1006,0.0364990234375,-0.496734619140625,-0.922882080078125,0
1007,0.0451202392578125,-0.448455810546875,-0.5363311767578125,0
1008,-0.0052032470703125,-0.3195343017578125,-0.36590576171875,0
1009,0.189697265625,-0.6274566650390625,-0.8270416259765625,0
1010,0.0153961181640625,-0.5359954833984375,-1.309295654296875,0
1011,-0.007568359375,-0.492523193359375,-0.813568115234375,0
1012,-0.0457000732421875,-0.3058929443359375,-0.7902374267578125,0
1013,0.011322021484375,-0.57757568359375,-1.000595092773438,0
1014,0.0070037841796875,-0.5934600830078125,-0.96148681640625,0
1015,-0.028961181640625,-0.580078125,-0.9347076416015624,0
1016,-0.0091705322265625,-0.529266357421875,-1.047882080078125,0
1017,-0.05975341796875,-0.5879058837890625,-0.778717041015625,0
1018,-0.0192108154296875,-0.5532073974609375,-1.002944946289062,0
1019,0.08563232421875,-0.4046478271484375,-0.81005859375,0
1020,0.0283355712890625,-0.6212005615234375,-0.9725189208984376,0
1021,0.00958251953125,-0.8272552490234375,-0.754913330078125,0
1022,0.02593994140625,-0.4402618408203125,-0.8615570068359375,0
1023,-0.0081939697265625,-0.7346343994140625,-0.7099456787109375,0
1024,0.168182373046875,-0.7703704833984375,-0.49761962890625,0
1025,-0.031463623046875,-0.5462493896484375,-0.847747802734375,0
1026,-0.0190582275390625,-0.605499267578125,-0.7594451904296875,0
1027,0.0124359130859375,-0.552581787109375,-0.6934967041015625,0
1028,-0.03912353515625,-0.6414794921875,-0.8244476318359375,0
1029,0.0004730224609375,-0.5735931396484375,-0.9381103515625,0
1030,0.033599853515625,-0.5903167724609375,-0.7127532958984375,0
1031,-0.0457611083984375,-0.6827239990234375,-0.751007080078125,0
1032,-0.08148193359375,-0.629241943359375,-0.7941436767578125,0
1033,0.0075836181640625,-0.6602783203125,-0.851898193359375,0
1034,-0.039703369140625,-0.50103759765625,-0.942108154296875,0
1035,-0.0645904541015625,-0.541656494140625,-0.9344024658203124,0
1036,-0.04473876953125,-0.6661834716796875,-0.770233154296875,0
1037,0.0716552734375,-0.6269989013671875,-0.8078155517578125,0
1038,0.018096923828125,-0.6233367919921875,-0.766815185546875,0
1039,-0.0649871826171875,-0.4689178466796875,-0.827911376953125,0
1040,0.0508270263671875,-0.559478759765625,-0.88494873046875,0
1041,-0.0538482666015625,-0.531005859375,-0.7998809814453125,0
1042,-0.0076141357421875,-0.740692138671875,-0.7917327880859375,0
1043,0.0830535888671875,-0.558746337890625,-0.7443695068359375,0
1044,-0.0120391845703125,-0.6659698486328125,-0.7262725830078125,0
1045,-0.02972412109375,-0.6165771484375,-0.744720458984375,0
1046,-0.0585784912109375,-0.6005706787109375,-0.75189208984375,0
1047,-0.0244598388671875,-0.62628173828125,-0.8132171630859375,0
1048,0.0689697265625,-0.6182098388671875,-0.7611541748046875,0
1049,0.060089111328125,-0.592376708984375,-0.8023529052734375,0
1050,0.0055694580078125,-0.6297149658203125,-0.73828125,0
1051,0.0335845947265625,-0.614288330078125,-0.80523681640625,0
1052,-0.016998291015625,-0.623809814453125,-0.6856842041015625,0
1053,0.0168914794921875,-0.6202239990234375,-0.8608856201171875,0
1054,-0.00244140625,-0.596221923828125,-0.8254852294921875,0
1055,0.05615234375,-0.6437835693359375,-0.842864990234375,0
1056,-0.0059814453125,-0.70745849609375,-0.73883056640625,0
1057,0.0248260498046875,-0.5902557373046875,-0.7198486328125,0
1058,0.0328826904296875,-0.64251708984375,-0.795166015625,0
1059,0.0023193359375,-0.6758575439453125,-0.7588653564453125,0
1060,-0.0263519287109375,-0.6180877685546875,-0.7282562255859375,0
1061,0.0584259033203125,-0.6673736572265625,-0.8043670654296875,0
1062,-0.0238037109375,-0.62322998046875,-0.7725830078125,0
1063,-0.1125030517578125,-0.61865234375,-0.71051025390625,0
1064,0.0165863037109375,-0.6317596435546875,-0.788909912109375,0
1065,0.0296478271484375,-0.645904541015625,-0.8438720703125,0
1066,-0.0452423095703125,-0.6190948486328125,-0.75323486328125,0
1067,-0.014007568359375,-0.602813720703125,-0.7552337646484375,0
1068,-0.0086669921875,-0.637420654296875,-0.788055419921875,0
1069,0.1194305419921875,-0.64208984375,-0.75347900390625,0
1070,-0.041900634765625,-0.7557220458984375,-0.66796875,0
1071,0.041290283203125,-0.64300537109375,-0.75775146484375,0
1072,-0.0594940185546875,-0.6346588134765625,-0.8725738525390625,0
1073,0.0245513916015625,-0.62274169921875,-0.6457366943359375,0
1074,-0.0451812744140625,-0.653106689453125,-0.77130126953125,0
1075,0.00238037109375,-0.7251129150390625,-0.6963653564453125,0
1076,-0.01544189453125,-0.66656494140625,-0.7388153076171875,0
1077,0.0500640869140625,-0.6985626220703125,-0.745574951171875,0
1078,-0.0245513916015625,-0.607147216796875,-0.802276611328125,0
1079,-0.022613525390625,-0.6163330078125,-0.7984619140625,0
1080,0.026947021484375,-0.6285400390625,-0.726318359375,0
1081,0.0143585205078125,-0.66510009765625,-0.7886962890625,0
1082,-0.0270538330078125,-0.610382080078125,-0.735748291015625,0
1083,6.103515625e-05,-0.67254638671875,-0.68975830078125,0
1084,0.019622802734375,-0.5988616943359375,-0.8585205078125,0
1085,0.0504302978515625,-0.638275146484375,-0.7655792236328125,0
1086,0.0707550048828125,-0.605712890625,-0.78656005859375,0
1087,0.002105712890625,-0.66290283203125,-0.7610626220703125,0
1088,-0.0763702392578125,-0.6295166015625,-0.8089447021484375,0
1089,0.0149078369140625,-0.640380859375,-0.7626190185546875,0
1090,-0.022857666015625,-0.665557861328125,-0.7733306884765625,0
1091,-0.0162811279296875,-0.5252685546875,-0.85888671875,0
1092,0.04901123046875,-0.605560302734375,-0.7957000732421875,0
1093,0.0303192138671875,-0.6496734619140625,-0.7748565673828125,0
1094,0.05035400390625,-0.6732177734375,-0.762359619140625,0
1095,-0.1078948974609375,-0.6365203857421875,-0.77423095703125,0
1096,0.0196075439453125,-0.6266632080078125,-0.7393798828125,0
1097,-0.0809326171875,-0.606597900390625,-0.73822021484375,0
1098,0.0574493408203125,-0.648529052734375,-0.7769775390625,0
1099,-0.037750244140625,-0.618194580078125,-0.7506561279296875,0
1100,0.064056396484375,-0.68292236328125,-0.74786376953125,0
1101,0.0172576904296875,-0.6690216064453125,-0.79376220703125,0
1102,0.02313232421875,-0.623016357421875,-0.7204132080078125,0
1103,0.0052490234375,-0.6570281982421875,-0.77398681640625,0
1104,0.059234619140625,-0.6120452880859375,-0.79705810546875,0
1105,0.091888427734375,-0.5403289794921875,-0.8722991943359375,0
1106,0.03009033203125,-0.595611572265625,-0.8917236328125,0
1107,-0.071075439453125,-0.76202392578125,-0.546905517578125,0
1108,0.0228729248046875,-0.8643035888671875,-0.4167938232421875,0
1109,-0.0243072509765625,-0.9095306396484376,-0.6182708740234375,0
1110,-0.220550537109375,-0.84954833984375,-0.4100494384765625,0
1111,0.6961822509765625,-1.483184814453125,-1.102828979492188,0
1112,1.6705474853515618,-0.210174560546875,-2.575363159179688,0
1113,0.265411376953125,-0.4105377197265625,-0.302154541015625,1
1114,0.78070068359375,-0.8574066162109375,-0.235565185546875,1
1115,-0.4917449951171875,-0.943145751953125,-0.2682952880859375,1
1116,0.4420166015625,-0.550567626953125,-0.758056640625,1
1117,0.1256866455078125,-1.7623748779296882,1.060836791992188,1
1118,-0.1845245361328125,-0.64215087890625,-0.048370361328125,1
1119,-0.36859130859375,-0.78070068359375,-0.58526611328125,1
1120,-0.1283111572265625,-0.862335205078125,0.024383544921875,1
1121,0.012603759765625,-0.8274383544921875,-0.3927459716796875,1
1122,-0.18194580078125,-1.046707153320312,-0.307159423828125,1
1123,-0.6542205810546875,-1.51251220703125,-0.271942138671875,1
1124,-0.226837158203125,-0.1798858642578125,-0.7187652587890625,1
1125,0.4388275146484375,-0.7954559326171875,-0.581817626953125,1
1126,0.1561279296875,-1.302581787109375,0.00091552734375,1
1127,-0.0925445556640625,-1.047698974609375,-0.0335540771484375,1
1128,0.041900634765625,-0.0838470458984375,-0.255615234375,1
1129,0.377655029296875,-0.1301422119140625,-0.0505828857421875,0
1130,1.079315185546875,-2.74456787109375,0.0560760498046875,0
1131,-0.9317169189453124,-0.750335693359375,-0.9839630126953124,0
1132,0.4937896728515625,-0.2384796142578125,-0.8022003173828125,0
1133,0.0382080078125,-0.59649658203125,-0.9262847900390624,0
1134,-0.1399993896484375,-0.8824615478515625,-1.186065673828125,0
1135,-0.2060546875,-0.75445556640625,-0.9419708251953124,0
1136,-0.1035308837890625,-0.60845947265625,-0.5873260498046875,0
1137,-0.2074737548828125,-0.6294708251953125,-0.61822509765625,0
1138,0.2216796875,-0.7552032470703125,-0.9461822509765624,0
1139,-0.0012664794921875,-0.5543975830078125,-0.7160491943359375,0
1140,-0.0491485595703125,-0.69122314453125,-1.283157348632812,0
1141,0.01971435546875,-0.6946563720703125,-0.640380859375,0
1142,0.02728271484375,-0.443115234375,-0.6691741943359375,0
1143,0.08428955078125,-0.460662841796875,-0.477630615234375,0
1144,0.053436279296875,-0.533721923828125,-0.5255279541015625,0
1145,-0.0617828369140625,-0.4961090087890625,-0.84564208984375,0
1146,0.0841217041015625,-0.4503173828125,-0.6405181884765625,0
1147,-0.0998077392578125,-0.59869384765625,-0.737640380859375,0
1148,0.037445068359375,-0.4986419677734375,-0.618316650390625,0
1149,-0.14923095703125,-0.6064300537109375,-1.028854370117188,0
1150,0.042633056640625,-0.5558319091796875,-1.061813354492188,0
1151,-0.0979461669921875,-0.5396881103515625,-0.87652587890625,0
1152,-0.128082275390625,-0.529541015625,-0.8687896728515625,0
1153,0.0920867919921875,-0.4411163330078125,-1.158187866210938,0
1154,0.136260986328125,-0.470123291015625,-1.19366455078125,0
1155,0.1239776611328125,-0.5426025390625,-0.806243896484375,0
1156,0.011199951171875,-0.45269775390625,-0.8668975830078125,0
1157,0.1087188720703125,-0.4853668212890625,-0.911285400390625,0
1158,-0.0281982421875,-0.5301055908203125,-0.838836669921875,0
1159,0.0170135498046875,-0.5980072021484375,-0.8763885498046875,0
1160,-0.0482940673828125,-0.697265625,-0.7467498779296875,0
1161,0.0428619384765625,-0.589996337890625,-1.018203735351562,0
1162,0.1879730224609375,-0.67340087890625,-0.8849639892578125,0
1163,-0.0414276123046875,-0.6895751953125,-0.6299285888671875,0
1164,-0.0442047119140625,-0.5443267822265625,-0.704315185546875,0
1165,0.025726318359375,-0.424591064453125,-0.7940673828125,0
1166,0.212066650390625,-0.47802734375,-0.908477783203125,0
1167,-0.0180206298828125,-0.57879638671875,-0.8784942626953125,0
1168,-0.06341552734375,-0.5930023193359375,-0.7234649658203125,0
1169,0.0192108154296875,-0.6501312255859375,-0.949066162109375,0
1170,0.05059814453125,-0.588836669921875,-0.8023223876953125,0
1171,0.072052001953125,-0.555145263671875,-0.8190460205078125,0
1172,0.2127838134765625,-0.5411224365234375,-0.8280792236328125,0
1173,0.014984130859375,-0.525360107421875,-0.86529541015625,0
1174,0.0145111083984375,-0.67138671875,-0.716156005859375,0
1175,0.08538818359375,-0.70965576171875,-0.8074951171875,0
1176,0.0535736083984375,-0.5478973388671875,-0.80645751953125,0
1177,-0.06182861328125,-0.4394683837890625,-1.179946899414062,0
1178,0.0079803466796875,-0.68701171875,-0.7125396728515625,0
1179,0.10955810546875,-0.642913818359375,-0.671173095703125,0
1180,0.038421630859375,-0.5321502685546875,-1.105316162109375,0
1181,-0.05084228515625,-0.68157958984375,-0.75653076171875,0
1182,-0.049560546875,-0.57232666015625,-0.809539794921875,0
1183,-0.013641357421875,-0.5753631591796875,-0.76806640625,0
1184,-0.040435791015625,-0.4819488525390625,-0.4929656982421875,0
1185,-0.0351104736328125,-0.584930419921875,-0.7500457763671875,0
1186,-0.03302001953125,-0.6886749267578125,-0.7794342041015625,0
1187,0.0228118896484375,-0.6297149658203125,-0.7323150634765625,0
1188,0.0063629150390625,-0.60028076171875,-0.897247314453125,0
1189,0.145263671875,-0.66290283203125,-0.7599639892578125,0
1190,0.1011199951171875,-0.6334075927734375,-0.6577301025390625,0
1191,0.065643310546875,-0.6475677490234375,-0.9036102294921876,0
1192,0.066925048828125,-0.638336181640625,-0.74078369140625,0
1193,0.02777099609375,-0.5906219482421875,-0.792388916015625,0
1194,0.0341033935546875,-0.61181640625,-0.9174652099609376,0
1195,-0.0100250244140625,-0.5782928466796875,-0.7951202392578125,0
1196,0.0253143310546875,-0.6084442138671875,-0.773681640625,0
1197,0.0934295654296875,-0.640777587890625,-0.8576812744140625,0
1198,-0.018829345703125,-0.619140625,-0.79925537109375,0
1199,0.0345916748046875,-0.6515655517578125,-0.8071746826171875,0
1200,0.0037994384765625,-0.585174560546875,-0.8821868896484375,0
1201,-0.029632568359375,-0.667755126953125,-0.8120269775390625,0
1202,0.0589599609375,-0.6129302978515625,-0.7911376953125,0
1203,0.0039825439453125,-0.551971435546875,-0.760467529296875,0
1204,0.0260162353515625,-0.5437774658203125,-0.7280120849609375,0
1205,0.0432281494140625,-0.638702392578125,-0.9512786865234376,0
1206,0.0281829833984375,-0.6269683837890625,-0.8441009521484375,0
1207,0.0017242431640625,-0.5654144287109375,-0.6280059814453125,0
1208,-0.101593017578125,-0.5347747802734375,-0.806365966796875,0
1209,0.0581512451171875,-0.544586181640625,-0.55242919921875,0
1210,0.0294342041015625,-0.549468994140625,-0.8043670654296875,0
1211,0.071075439453125,-0.5174407958984375,-0.8712310791015625,0
1212,-0.1471710205078125,-0.5599517822265625,-1.007797241210938,0
1213,-0.066680908203125,-0.5483551025390625,-0.7614898681640625,0
1214,-0.0421142578125,-0.43206787109375,-0.8163299560546875,0
1215,0.12841796875,-0.62823486328125,-0.8582763671875,0
1216,-0.07098388671875,-0.4284515380859375,-0.82818603515625,0
1217,-0.0508270263671875,-0.5355987548828125,-0.85137939453125,0
1218,-0.1182098388671875,-0.448699951171875,-0.9428558349609376,0
1219,-0.0786590576171875,-0.4654541015625,-0.6497650146484375,0
1220,0.0396575927734375,-0.5505218505859375,-0.9662933349609376,0
1221,-0.0980072021484375,-0.534759521484375,-0.7443695068359375,0
1222,0.12188720703125,-0.636444091796875,-0.693572998046875,0
1223,0.0106658935546875,-0.5349273681640625,-0.75787353515625,0
1224,-0.0348358154296875,-0.6441497802734375,-0.7700653076171875,0
1225,0.0132598876953125,-0.5332183837890625,-0.75299072265625,0
1226,-0.136993408203125,-0.5634002685546875,-0.774871826171875,0
1227,0.0076141357421875,-0.6544647216796875,-0.731048583984375,0
1228,-0.04583740234375,-0.5716705322265625,-0.846893310546875,0
1229,-0.0065460205078125,-0.6026611328125,-0.83416748046875,0
1230,0.088958740234375,-0.6570587158203125,-0.635284423828125,0
1231,-0.053375244140625,-0.64453125,-0.679718017578125,0
1232,0.074920654296875,-0.5741119384765625,-0.7872772216796875,0
1233,-0.0799560546875,-0.5460357666015625,-0.8365020751953125,0
1234,0.0703887939453125,-0.5867919921875,-0.66961669921875,0
1235,0.098785400390625,-0.6658172607421875,-0.796783447265625,0
1236,0.00799560546875,-0.5812225341796875,-0.71942138671875,0
1237,0.042572021484375,-0.5917816162109375,-0.8379669189453125,0
1238,0.0224151611328125,-0.5902862548828125,-0.7439727783203125,0
1239,0.0086669921875,-0.6277618408203125,-0.79791259765625,0
1240,0.04193115234375,-0.638336181640625,-0.766754150390625,0
1241,-0.0699005126953125,-0.6113739013671875,-0.7939910888671875,0
1242,0.0168609619140625,-0.564117431640625,-0.8693695068359375,0
1243,0.0380859375,-0.6801300048828125,-0.7314453125,0
1244,0.0738677978515625,-0.585479736328125,-0.8600006103515625,0
1245,0.016632080078125,-0.620849609375,-0.7001190185546875,0
1246,0.0435028076171875,-0.615234375,-0.7705535888671875,0
1247,-0.047088623046875,-0.61297607421875,-0.8550262451171875,0
1248,0.047515869140625,-0.62249755859375,-0.75103759765625,0
1249,0.055389404296875,-0.6573486328125,-0.79644775390625,0
1250,-0.028533935546875,-0.6870574951171875,-0.7775421142578125,0
1251,-0.0008697509765625,-0.5823516845703125,-0.76708984375,0
1252,0.040802001953125,-0.5182952880859375,-0.8244171142578125,0
1253,-0.03759765625,-0.63873291015625,-0.77593994140625,0
1254,0.048736572265625,-0.578155517578125,-0.815338134765625,0
1255,0.057708740234375,-0.6692047119140625,-0.750457763671875,0
1256,0.049957275390625,-0.6285247802734375,-0.766143798828125,0
1257,0.0016326904296875,-0.65576171875,-0.7321624755859375,0
1258,-0.0358734130859375,-0.6089630126953125,-0.8169097900390625,0
1259,0.077056884765625,-0.6111297607421875,-0.8019866943359375,0
1260,0.009368896484375,-0.6373748779296875,-0.7683563232421875,0
1261,0.061065673828125,-0.6557464599609375,-0.851348876953125,0
1262,-0.03216552734375,-0.6049957275390625,-0.7324066162109375,0
1263,-0.067596435546875,-0.709442138671875,-0.77337646484375,0
1264,0.035369873046875,-0.5827178955078125,-0.83270263671875,0
1265,0.032745361328125,-0.60284423828125,-0.809906005859375,0
1266,0.07861328125,-0.6274871826171875,-0.7705535888671875,0
1267,-0.0533447265625,-0.5510406494140625,-0.8321990966796875,0
1268,0.031646728515625,-0.6455078125,-0.8347930908203125,0
1269,-0.0191802978515625,-0.637542724609375,-0.775848388671875,0
1270,0.0380706787109375,-0.65643310546875,-0.6625518798828125,0
1271,0.0184326171875,-0.6484527587890625,-0.748382568359375,0
1272,0.08282470703125,-0.6194000244140625,-0.7645721435546875,0
1273,0.0082550048828125,-0.5516204833984375,-0.770111083984375,0
1274,-0.053558349609375,-0.584686279296875,-0.7247314453125,0
1275,0.005706787109375,-0.6938018798828125,-0.7470703125,0
1276,-0.0201568603515625,-0.646820068359375,-0.715179443359375,0
1277,0.004547119140625,-0.645904541015625,-0.803558349609375,0
1278,0.0294189453125,-0.5814666748046875,-0.87811279296875,0
1279,0.0022125244140625,-0.646240234375,-0.746246337890625,0
1280,0.04071044921875,-0.642303466796875,-0.7714385986328125,0
1281,0.020050048828125,-0.5867462158203125,-0.8200531005859375,0
1282,-0.0030975341796875,-0.67852783203125,-0.6957550048828125,0
1283,0.005706787109375,-0.632293701171875,-0.7081756591796875,0
1284,-0.0612945556640625,-0.6852264404296875,-0.748687744140625,0
1285,0.061004638671875,-0.6249847412109375,-0.7324066162109375,0
1286,0.0828399658203125,-0.659393310546875,-0.7546539306640625,0
1287,0.0069122314453125,-0.6005706787109375,-0.8231658935546875,0
1288,0.0583038330078125,-0.631805419921875,-0.81396484375,0
1289,0.089996337890625,-0.59326171875,-0.7528076171875,0
1290,-0.183380126953125,-0.70330810546875,-0.8197479248046875,0
1291,0.064971923828125,-0.6239776611328125,-0.80413818359375,0
1292,0.0150299072265625,-0.58642578125,-0.815185546875,0
1293,0.0466156005859375,-0.59112548828125,-0.7339324951171875,0
1294,-0.02337646484375,-0.602783203125,-0.762603759765625,0
1295,0.07110595703125,-0.6173858642578125,-0.7956085205078125,0
1296,-0.089385986328125,-0.612030029296875,-0.805511474609375,0
1297,0.0380859375,-0.6168060302734375,-0.7462615966796875,0
1298,0.11993408203125,-0.650634765625,-0.6976318359375,0
1299,-0.1016387939453125,-0.68743896484375,-0.626708984375,0
1300,-0.0213470458984375,-0.6875762939453125,-0.7149658203125,0
1301,-0.01348876953125,-0.64385986328125,-0.7379913330078125,0
1302,-0.0265655517578125,-0.5506439208984375,-0.8571014404296875,0
1303,0.099212646484375,-0.5601959228515625,-0.7776031494140625,0
1304,-0.0687255859375,-0.514739990234375,-0.8701019287109375,0
1305,0.1074066162109375,-0.7636871337890625,-0.698333740234375,0
1306,-0.01702880859375,-0.528045654296875,-0.805084228515625,0
1307,0.0298919677734375,-0.66778564453125,-0.681396484375,0
1308,0.030303955078125,-0.655303955078125,-0.7200164794921875,0
1309,-0.0758209228515625,-0.59625244140625,-0.86785888671875,0
1310,-0.0463104248046875,-0.5917205810546875,-0.770721435546875,0
1311,0.017578125,-0.5772247314453125,-0.8191375732421875,0
1312,0.0009002685546875,-0.6183319091796875,-0.7951507568359375,0
1313,0.0660552978515625,-0.62103271484375,-0.801727294921875,0
1314,-0.036102294921875,-0.6176300048828125,-0.7467041015625,0
1315,-0.010406494140625,-0.6790313720703125,-0.74169921875,0
1316,0.0276641845703125,-0.644561767578125,-0.8182830810546875,0
1317,-0.02099609375,-0.57568359375,-0.8022003173828125,0
1318,-0.0133819580078125,-0.4306488037109375,-0.9689483642578124,0
1319,0.152435302734375,-0.35479736328125,-0.616119384765625,0
1320,-0.1251373291015625,-0.8331451416015625,-0.423065185546875,0
1321,0.1536865234375,-0.9500885009765624,-0.51422119140625,0
1322,-0.1054840087890625,-0.9062652587890624,-0.7043609619140625,0
1323,-0.1119232177734375,-1.004486083984375,-0.3634185791015625,0
1324,-0.530059814453125,-1.22869873046875,-1.180618286132812,0
1325,-0.1967010498046875,-0.293243408203125,-0.314544677734375,0
1326,1.00006103515625,-1.3924713134765618,-0.288665771484375,0
1327,0.2118377685546875,-0.480743408203125,-0.11663818359375,1
1328,0.215972900390625,-0.6107330322265625,-0.4333038330078125,1
1329,-0.1785430908203125,-1.036392211914062,-0.0439605712890625,1
1330,0.3416748046875,-0.6948089599609375,-0.397186279296875,1
1331,-0.208465576171875,-0.7008056640625,-0.5515899658203125,1
1332,0.04510498046875,-1.115036010742188,-0.4404296875,1
1333,0.6240997314453125,-0.9293212890625,0.37628173828125,1
1334,0.0545806884765625,-0.8674468994140625,-0.4951324462890625,1
1335,0.2567596435546875,-0.8823089599609375,-0.0881195068359375,1
1336,-0.532928466796875,-0.420257568359375,-1.016632080078125,1
1337,-0.0132598876953125,-1.009872436523438,0.00469970703125,0
1338,0.3902587890625,-0.0564422607421875,0.24749755859375,0
1339,-1.13397216796875,-0.1620330810546875,-7.3177490234375,0
1340,0.93572998046875,-0.668701171875,-0.71795654296875,0
1341,0.6663665771484375,-0.6751708984375,-0.8244171142578125,0
1342,0.089599609375,-0.4437713623046875,-0.27227783203125,0
1343,0.389373779296875,-0.4150848388671875,-1.045333862304688,0
1344,0.29815673828125,-0.61334228515625,-1.087921142578125,0
1345,-0.028289794921875,-0.746185302734375,-0.763641357421875,0
1346,-0.051361083984375,-0.7278594970703125,-0.9160308837890624,0
1347,-0.116058349609375,-0.50335693359375,-1.552886962890625,0
1348,0.22607421875,-0.4378204345703125,-0.4521331787109375,0
1349,0.1050567626953125,-0.8585357666015625,-1.078582763671875,0
1350,-0.356475830078125,-0.4364166259765625,-0.5698394775390625,0
1351,-0.0622100830078125,-0.5848236083984375,-0.8755645751953125,0
1352,0.053131103515625,-0.5950469970703125,-0.46820068359375,0
1353,-0.0413818359375,-0.7601470947265625,-1.143539428710938,0
1354,-0.3590087890625,-0.4914398193359375,-1.268463134765625,0
1355,-0.1681671142578125,-0.451904296875,-1.455780029296875,0
1356,0.023223876953125,-0.56048583984375,-0.92962646484375,0
1357,-0.0507049560546875,-0.4524688720703125,-0.9743499755859376,0
1358,-0.027557373046875,-0.692962646484375,-0.910430908203125,0
1359,0.1803741455078125,-0.6730194091796875,-0.3290863037109375,0
1360,-0.065185546875,-0.4676513671875,-0.6915283203125,0
1361,-0.08331298828125,-0.546630859375,-1.073684692382812,0
1362,-0.0871124267578125,-0.473480224609375,-0.7557830810546875,0
1363,-0.009124755859375,-0.699432373046875,-0.6754302978515625,0
1364,0.0138702392578125,-0.6827239990234375,-0.49365234375,0
1365,0.2190093994140625,-0.573974609375,-0.723419189453125,0
1366,0.012359619140625,-0.600799560546875,-1.063400268554688,0
1367,-0.0444488525390625,-0.484039306640625,-0.951568603515625,0
1368,0.0533599853515625,-0.630157470703125,-0.8842620849609375,0
1369,-0.0420684814453125,-0.6668853759765625,-0.7917938232421875,0
1370,0.0079498291015625,-0.673553466796875,-0.74444580078125,0
1371,-0.0106964111328125,-0.6082763671875,-0.742767333984375,0
1372,-0.098175048828125,-0.5710906982421875,-1.069534301757812,0
1373,-0.0129547119140625,-0.7118072509765625,-0.944732666015625,0
1374,0.0043487548828125,-0.6538238525390625,-1.026138305664062,0
1375,0.0274658203125,-0.6557769775390625,-0.8047332763671875,0
1376,0.0349578857421875,-0.651702880859375,-0.782440185546875,0
1377,0.0310516357421875,-0.5951080322265625,-0.7193603515625,0
1378,0.021453857421875,-0.6578369140625,-0.8319244384765625,0
1379,0.14349365234375,-0.6581573486328125,-0.7149810791015625,0
1380,-0.011138916015625,-0.6019439697265625,-1.06353759765625,0
1381,0.026580810546875,-0.6768035888671875,-0.771697998046875,0
1382,-0.0254974365234375,-0.4949798583984375,-0.7934722900390625,0
1383,0.021942138671875,-0.7236785888671875,-0.8286590576171875,0
1384,-0.0225677490234375,-0.532379150390625,-0.784759521484375,0
1385,0.010711669921875,-0.6006927490234375,-0.698974609375,0
1386,-0.0236663818359375,-0.613372802734375,-0.8080291748046875,0
1387,-0.0119781494140625,-0.6096343994140625,-0.7343902587890625,0
1388,-0.0330657958984375,-0.4936065673828125,-0.928863525390625,0
1389,-0.0460662841796875,-0.5979156494140625,-0.7654571533203125,0
1390,0.014495849609375,-0.7552032470703125,-1.127044677734375,0
1391,0.0534210205078125,-0.6231231689453125,-0.9070587158203124,0
1392,0.1477508544921875,-0.52362060546875,-0.9766082763671876,0
1393,0.0305328369140625,-0.6894683837890625,-0.9044189453125,0
1394,0.0461883544921875,-0.64794921875,-1.105087280273438,0
1395,-0.050567626953125,-0.637786865234375,-0.623382568359375,0
1396,0.0619354248046875,-0.3900604248046875,-1.282211303710938,0
1397,-0.0323638916015625,-0.425933837890625,-0.9615020751953124,0
1398,0.0413970947265625,-0.5330963134765625,-0.754608154296875,0
1399,0.027435302734375,-0.4938812255859375,-1.111648559570312,0
1400,-0.07122802734375,-0.4742889404296875,-0.85882568359375,0
1401,-0.092742919921875,-0.4384765625,-0.83282470703125,0
1402,0.0059051513671875,-0.5355377197265625,-0.8285675048828125,0
1403,-0.1025390625,-0.35662841796875,-0.8513336181640625,0
1404,0.0562591552734375,-0.6607208251953125,-0.820770263671875,0
1405,0.0421905517578125,-0.515899658203125,-1.290145874023438,0
1406,-0.0423583984375,-0.5029296875,-0.8055572509765625,0
1407,0.0346832275390625,-0.4941253662109375,-0.698974609375,0
1408,-0.00775146484375,-0.4276123046875,-0.8540191650390625,0
1409,0.05810546875,-0.4130401611328125,-1.167633056640625,0
1410,0.1305084228515625,-0.718170166015625,-1.26348876953125,0
1411,-0.2409515380859375,-0.472442626953125,-0.779937744140625,0
1412,-0.005157470703125,-0.542205810546875,-0.8330230712890625,0
1413,-0.0258331298828125,-0.49542236328125,-0.7590484619140625,0
1414,-0.014404296875,-0.583770751953125,-1.047866821289062,0
1415,0.1921539306640625,-0.6746368408203125,-0.9898681640625,0
1416,0.02496337890625,-0.474639892578125,-0.91534423828125,0
1417,0.050079345703125,-0.6410980224609375,-0.7588653564453125,0
1418,-0.0375823974609375,-0.521697998046875,-0.9767303466796876,0
1419,0.0009613037109375,-0.6629180908203125,-0.8377838134765625,0
1420,0.0566253662109375,-0.5623321533203125,-0.7610015869140625,0
1421,-0.0306396484375,-0.5854644775390625,-0.860565185546875,0
1422,0.0191497802734375,-0.6209869384765625,-0.76470947265625,0
1423,-0.0330352783203125,-0.6150054931640625,-0.7097320556640625,0
1424,-0.032806396484375,-0.62640380859375,-0.8028411865234375,0
1425,-0.0027923583984375,-0.6803436279296875,-0.777191162109375,0
1426,0.00177001953125,-0.608428955078125,-0.86041259765625,0
1427,0.0313262939453125,-0.5677337646484375,-0.811553955078125,0
1428,0.0152130126953125,-0.5695037841796875,-0.8465576171875,0
1429,0.0219879150390625,-0.5677032470703125,-0.760345458984375,0
1430,0.0136566162109375,-0.687744140625,-0.7980804443359375,0
1431,0.0367584228515625,-0.55133056640625,-0.7673187255859375,0
1432,0.0078277587890625,-0.568695068359375,-0.8651275634765625,0
1433,0.025970458984375,-0.582427978515625,-0.849456787109375,0
1434,0.0075531005859375,-0.637786865234375,-0.765625,0
1435,0.0268402099609375,-0.6147613525390625,-0.7392730712890625,0
1436,0.0020294189453125,-0.573516845703125,-0.80108642578125,0
1437,-0.0496978759765625,-0.6188507080078125,-0.8156890869140625,0
1438,0.038421630859375,-0.6627197265625,-0.725433349609375,0
1439,-0.00457763671875,-0.6208953857421875,-0.7675018310546875,0
1440,0.0123748779296875,-0.602386474609375,-0.8090972900390625,0
1441,-0.03094482421875,-0.6016082763671875,-0.815948486328125,0
1442,-0.018585205078125,-0.617095947265625,-0.8942413330078125,0
1443,-0.0259552001953125,-0.6384124755859375,-0.822174072265625,0
1444,0.033660888671875,-0.461181640625,-0.8715972900390625,0
1445,0.0118865966796875,-0.57177734375,-0.82049560546875,0
1446,0.0386199951171875,-0.56634521484375,-0.801177978515625,0
1447,0.03375244140625,-0.5832061767578125,-0.82745361328125,0
1448,0.0160675048828125,-0.6324310302734375,-0.7829132080078125,0
1449,0.046478271484375,-0.6016082763671875,-0.8110809326171875,0
1450,0.0623779296875,-0.628326416015625,-0.7718048095703125,0
1451,-0.05059814453125,-0.60174560546875,-0.7615203857421875,0
1452,-0.015533447265625,-0.57330322265625,-0.7156219482421875,0
1453,-0.01385498046875,-0.5872344970703125,-0.77740478515625,0
1454,-0.03057861328125,-0.6497650146484375,-0.82281494140625,0
1455,0.03125,-0.6148834228515625,-0.7505035400390625,0
1456,-0.023040771484375,-0.634979248046875,-0.78863525390625,0
1457,0.06182861328125,-0.5708465576171875,-0.75732421875,0
1458,0.0329132080078125,-0.635711669921875,-0.8405914306640625,0
1459,0.076995849609375,-0.617034912109375,-0.704620361328125,0
1460,0.0344390869140625,-0.6410064697265625,-0.7868499755859375,0
1461,-0.054229736328125,-0.62042236328125,-0.82427978515625,0
1462,-0.0051116943359375,-0.588226318359375,-0.775787353515625,0
1463,-0.070465087890625,-0.4645538330078125,-0.808929443359375,0
1464,-0.0294036865234375,-0.58477783203125,-0.764678955078125,0
1465,-0.038665771484375,-0.60382080078125,-0.76806640625,0
1466,-0.0135040283203125,-0.581146240234375,-0.6863250732421875,0
1467,-0.0081939697265625,-0.635284423828125,-0.7971649169921875,0
1468,-0.028472900390625,-0.5937652587890625,-0.767242431640625,0
1469,0.046661376953125,-0.566741943359375,-0.859527587890625,0
1470,0.085479736328125,-0.5665740966796875,-0.8780059814453125,0
1471,-0.03533935546875,-0.67724609375,-0.7822265625,0
1472,-0.0365142822265625,-0.6032257080078125,-0.7395172119140625,0
1473,0.043243408203125,-0.6411590576171875,-0.79498291015625,0
1474,0.0331878662109375,-0.6150665283203125,-0.75408935546875,0
1475,-0.045379638671875,-0.6244659423828125,-0.745574951171875,0
1476,0.0053253173828125,-0.6001434326171875,-0.8436737060546875,0
1477,-0.0079193115234375,-0.617431640625,-0.7575836181640625,0
1478,-0.116790771484375,-0.6150360107421875,-0.7869873046875,0
1479,0.0902862548828125,-0.683349609375,-0.783782958984375,0
1480,-0.052215576171875,-0.6118316650390625,-0.8448333740234375,0
1481,0.0175933837890625,-0.6050567626953125,-0.6964111328125,0
1482,0.039794921875,-0.65997314453125,-0.78009033203125,0
1483,0.0494384765625,-0.4976348876953125,-0.9404754638671876,0
1484,0.0365753173828125,-0.6417694091796875,-0.6668853759765625,0
1485,-0.029449462890625,-0.5657501220703125,-0.838592529296875,0
1486,-0.0131378173828125,-0.7171630859375,-0.7908935546875,0
1487,0.0184326171875,-0.6201171875,-0.7324371337890625,0
1488,0.043914794921875,-0.6152801513671875,-0.780914306640625,0
1489,-0.0689697265625,-0.60260009765625,-0.7413177490234375,0
1490,-0.01025390625,-0.5576324462890625,-0.7428131103515625,0
1491,-0.00341796875,-0.7133941650390625,-0.673675537109375,0
1492,0.067474365234375,-0.63909912109375,-0.73095703125,0
1493,-0.0016326904296875,-0.6380157470703125,-0.7470703125,0
1494,-0.009490966796875,-0.5433349609375,-0.884857177734375,0
1495,0.0832366943359375,-0.4790191650390625,-1.134567260742188,0
1496,-0.1471710205078125,-0.9261474609375,-0.6026153564453125,0
1497,0.294464111328125,-1.100143432617188,-0.260467529296875,0
1498,0.100341796875,-0.9831085205078124,0.053619384765625,0
1499,0.244415283203125,-1.4766693115234382,-1.7789459228515618,0
1500,-0.712493896484375,-0.1192779541015625,-1.821609497070312,0
1501,0.0657806396484375,-0.144927978515625,-0.1926727294921875,0
1502,0.099212646484375,-1.02972412109375,-0.1723785400390625,1
1503,0.0126953125,-0.7865753173828125,0.0218658447265625,1
1504,0.1162109375,-0.52191162109375,-0.928070068359375,1
1505,-0.049072265625,-1.082107543945312,-0.00421142578125,1
1506,-0.3330230712890625,-0.8885345458984375,-0.11602783203125,1
1507,0.1109771728515625,-1.094345092773438,-0.4715118408203125,1
1508,0.1988525390625,-0.90753173828125,0.366302490234375,1
1509,0.2303619384765625,-0.5870513916015625,-1.014816284179688,1
1510,0.3175811767578125,-0.82855224609375,-0.0270233154296875,1
1511,-0.2837066650390625,-0.775390625,-0.7993316650390625,1
1512,0.1377410888671875,-1.327194213867188,0.167266845703125,1
1513,-0.1194000244140625,-0.768035888671875,-0.1723175048828125,1
1514,-0.1648101806640625,-1.320724487304688,0.3497161865234375,1
1515,0.5279388427734375,-1.195205688476562,-0.3445281982421875,1
1516,1.035446166992188,-1.077392578125,-0.1992645263671875,1
1517,-0.1767730712890625,-0.998321533203125,-0.3469696044921875,1
1518,-0.404510498046875,-1.007064819335938,-0.3292083740234375,1
1519,0.2219696044921875,-0.6895904541015625,-0.37713623046875,1
1520,0.009613037109375,-0.8025665283203125,-0.5031585693359375,1
1521,-0.8276824951171875,-0.413970947265625,-0.3397064208984375,1
1522,-0.5619354248046875,-0.17218017578125,-0.2506256103515625,0
1523,0.6157989501953125,-0.060943603515625,-0.1793975830078125,0
1524,-0.2165679931640625,-1.696075439453125,-0.507568359375,0
1525,0.7332611083984375,-0.9081268310546876,-0.7974700927734375,0
1526,-0.068939208984375,-0.3005218505859375,-1.229827880859375,0
1527,0.0352935791015625,-0.4804229736328125,-0.18878173828125,0
1528,-0.137420654296875,-0.5672607421875,-1.277969360351562,0
1529,0.211669921875,-0.3709259033203125,-0.819427490234375,0
1530,-0.33538818359375,-0.355682373046875,-1.032028198242188,0
1531,-0.1603546142578125,-0.4600830078125,-1.4755096435546882,0
1532,0.161285400390625,-0.3191070556640625,-1.37017822265625,0
1533,-0.34710693359375,-1.007888793945312,-1.17901611328125,0
1534,0.0141754150390625,-0.2300567626953125,-0.8162994384765625,0
1535,-0.0240631103515625,-0.564788818359375,-0.94610595703125,0
1536,-0.3201141357421875,-0.268035888671875,-1.0675048828125,0
1537,-0.0951080322265625,-0.8295135498046875,-1.350738525390625,0
1538,-0.10797119140625,-0.923309326171875,-1.9655914306640616,0
1539,0.2097930908203125,-0.9573974609375,0.227020263671875,0
1540,0.3450164794921875,-0.8102874755859375,0.375946044921875,0
1541,-0.0241241455078125,-1.02398681640625,-0.508514404296875,0
1542,0.1258697509765625,-0.705047607421875,-0.4589691162109375,0
1543,0.029693603515625,-0.54400634765625,-0.9380035400390624,0
1544,-0.0167236328125,-0.5474853515625,-1.321975708007812,0
1545,0.02191162109375,-0.5860443115234375,-0.81573486328125,0
1546,-0.049041748046875,-0.7912445068359375,-0.8473358154296875,0
1547,-0.009552001953125,-0.471710205078125,-0.7628326416015625,0
1548,-0.00592041015625,-0.5914764404296875,-0.6654052734375,0
1549,-0.0350189208984375,-0.6002044677734375,-1.071548461914062,0
1550,-0.115447998046875,-0.693084716796875,-1.356231689453125,0
1551,-0.045074462890625,-0.6977081298828125,-0.670989990234375,0
1552,-0.0157012939453125,-0.42657470703125,-0.3167266845703125,0
1553,-0.0663604736328125,-0.6259613037109375,-1.182647705078125,0
1554,0.0280914306640625,-0.6253814697265625,-0.721710205078125,0
1555,-0.0276641845703125,-0.67462158203125,-0.8800811767578125,0
1556,-0.028533935546875,-0.5994720458984375,-1.092559814453125,0
1557,0.118804931640625,-0.4941253662109375,-0.72039794921875,0
1558,0.109344482421875,-0.504608154296875,-0.48394775390625,0
1559,0.0081939697265625,-0.460418701171875,-0.6037139892578125,0
1560,0.05316162109375,-0.391998291015625,-0.62518310546875,0
1561,-0.0676116943359375,-0.7332305908203125,-0.5998687744140625,0
1562,-0.0016021728515625,-0.54168701171875,-0.811309814453125,0
1563,0.0836334228515625,-0.468048095703125,-0.3512420654296875,0
1564,-0.05889892578125,-0.581298828125,-1.215377807617188,0
1565,0.036529541015625,-0.6390533447265625,-1.098861694335938,0
1566,0.0257415771484375,-0.729400634765625,-0.6661834716796875,0
1567,0.0948028564453125,-0.537689208984375,-0.47802734375,0
1568,0.0807037353515625,-0.851165771484375,-0.911407470703125,0
1569,0.1127166748046875,-0.2274017333984375,-1.4784698486328118,0
1570,0.061614990234375,-0.734832763671875,-0.4946746826171875,0
1571,0.0718841552734375,-0.4707489013671875,-0.93487548828125,0
1572,0.0275115966796875,-0.5535736083984375,-0.834014892578125,0
1573,0.026031494140625,-0.5324859619140625,-1.208572387695312,0
1574,0.014678955078125,-0.39013671875,-0.7801971435546875,0
1575,0.0369873046875,-0.5333404541015625,-0.93817138671875,0
1576,-0.017242431640625,-0.4650421142578125,-0.8981781005859375,0
1577,0.0017852783203125,-0.37896728515625,-0.67034912109375,0
1578,-0.085235595703125,-0.5286865234375,-0.872802734375,0
1579,-0.0313720703125,-0.440887451171875,-0.6501007080078125,0
1580,-0.0108642578125,-0.4842071533203125,-0.730682373046875,0
1581,0.0198516845703125,-0.4834747314453125,-1.12017822265625,0
1582,-0.0300140380859375,-0.643707275390625,-0.817474365234375,0
1583,0.0407867431640625,-0.4328460693359375,-0.8018951416015625,0
1584,-0.0472869873046875,-0.60223388671875,-0.6832733154296875,0
1585,0.0283660888671875,-0.6825714111328125,-0.6986236572265625,0
1586,-0.0350189208984375,-0.6537322998046875,-0.856781005859375,0
1587,-0.0595245361328125,-0.648406982421875,-0.7595977783203125,0
1588,-0.12255859375,-0.4824371337890625,-0.6038665771484375,0
1589,0.0523834228515625,-0.4752044677734375,-0.86614990234375,0
1590,0.1197052001953125,-0.5518035888671875,-0.8885345458984375,0
1591,0.0645904541015625,-0.4726715087890625,-0.8412628173828125,0
1592,-0.007110595703125,-0.6463470458984375,-0.8293304443359375,0
1593,-0.1312103271484375,-0.6499786376953125,-0.85137939453125,0
1594,0.046905517578125,-0.5663604736328125,-0.8171844482421875,0
1595,0.0916900634765625,-0.4408721923828125,-0.6748809814453125,0
1596,0.0639190673828125,-0.6848602294921875,-0.8543548583984375,0
1597,0.073638916015625,-0.7900848388671875,-0.8316802978515625,0
1598,0.0783843994140625,-0.741943359375,-0.897613525390625,0
1599,0.00396728515625,-0.6060333251953125,-0.933502197265625,0
1600,-0.10113525390625,-0.4861297607421875,-0.7924957275390625,0
1601,-0.0475006103515625,-0.6634674072265625,-0.820404052734375,0
1602,-0.1006317138671875,-0.535125732421875,-0.8688812255859375,0
1603,-0.086944580078125,-0.5985107421875,-0.6262359619140625,0
1604,0.1211090087890625,-0.6347808837890625,-1.119674682617188,0
1605,0.02093505859375,-0.5811920166015625,-0.8862457275390625,0
1606,-0.1196136474609375,-0.503387451171875,-0.70086669921875,0
1607,-0.0469818115234375,-0.6870574951171875,-0.8559417724609375,0
1608,7.62939453125e-05,-0.5578765869140625,-0.79876708984375,0
1609,-0.10711669921875,-0.667755126953125,-0.8801116943359375,0
1610,0.0206756591796875,-0.5083160400390625,-1.140289306640625,0
1611,0.0672760009765625,-0.5013275146484375,-0.8507080078125,0
1612,-0.091766357421875,-0.5835418701171875,-0.80816650390625,0
1613,0.0891265869140625,-0.590057373046875,-0.913177490234375,0
1614,-0.1280364990234375,-0.509765625,-0.816864013671875,0
1615,-0.08148193359375,-0.5176849365234375,-0.9259185791015624,0
1616,0.0051727294921875,-0.46270751953125,-0.8599395751953125,0
1617,0.0626068115234375,-0.676025390625,-0.84173583984375,0
1618,-0.146392822265625,-0.48590087890625,-0.9010772705078124,0
1619,0.1960296630859375,-0.451324462890625,-0.7525634765625,0
1620,0.0365753173828125,-0.50299072265625,-0.744873046875,0
1621,-0.059295654296875,-0.734466552734375,-0.647308349609375,0
1622,0.0672607421875,-0.5518798828125,-0.7229156494140625,0
1623,-0.0007781982421875,-0.603240966796875,-0.88897705078125,0
1624,0.009796142578125,-0.6344757080078125,-0.7574462890625,0
1625,-0.0587310791015625,-0.5655364990234375,-0.8988494873046875,0
1626,-0.0666961669921875,-0.635498046875,-0.7771148681640625,0
1627,0.05792236328125,-0.6504364013671875,-0.7894134521484375,0
1628,0.0064544677734375,-0.7131500244140625,-0.7722320556640625,0
1629,0.0102386474609375,-0.4338836669921875,-0.784759521484375,0
1630,0.1149749755859375,-0.6056060791015625,-0.835906982421875,0
1631,0.067535400390625,-0.65460205078125,-0.7786102294921875,0
1632,-0.010345458984375,-0.54107666015625,-0.80462646484375,0
1633,-0.0026397705078125,-0.674163818359375,-0.714599609375,0
1634,-0.032012939453125,-0.6112060546875,-0.7739105224609375,0
1635,0.0001220703125,-0.5303192138671875,-0.841522216796875,0
1636,-0.0466461181640625,-0.6102142333984375,-0.8036346435546875,0
1637,-0.019287109375,-0.618988037109375,-0.7765960693359375,0
1638,0.0103759765625,-0.6302337646484375,-0.8051910400390625,0
1639,0.0461578369140625,-0.7400970458984375,-0.7263336181640625,0
1640,0.048797607421875,-0.5040283203125,-0.810211181640625,0
1641,0.1169586181640625,-0.51055908203125,-0.8040924072265625,0
1642,0.0461273193359375,-0.6551361083984375,-0.7460784912109375,0
1643,0.100982666015625,-0.5765380859375,-0.7702789306640625,0
1644,0.0310516357421875,-0.7250518798828125,-0.72430419921875,0
1645,-0.0197601318359375,-0.5760345458984375,-0.7654266357421875,0
1646,-0.0388336181640625,-0.6038970947265625,-0.6916656494140625,0
1647,0.0010223388671875,-0.62957763671875,-0.760711669921875,0
1648,-0.050567626953125,-0.687408447265625,-0.69140625,0
1649,-0.0418243408203125,-0.66961669921875,-0.7475738525390625,0
1650,0.0954132080078125,-0.6617279052734375,-0.64483642578125,0
1651,0.01263427734375,-0.67669677734375,-0.8283843994140625,0
1652,-0.0293426513671875,-0.5548553466796875,-0.8002471923828125,0
1653,0.024658203125,-0.5747833251953125,-0.7842254638671875,0
1654,-0.0122528076171875,-0.7074432373046875,-0.7641448974609375,0
1655,0.0680694580078125,-0.5890045166015625,-0.8003387451171875,0
1656,0.0368194580078125,-0.741363525390625,-0.7412109375,0
1657,-0.0270233154296875,-0.5564117431640625,-0.7862548828125,0
1658,0.0061492919921875,-0.5391082763671875,-0.727996826171875,0
1659,-0.0283660888671875,-0.6364593505859375,-0.7785491943359375,0
1660,-0.006256103515625,-0.6794586181640625,-0.7586669921875,0
1661,-0.0064849853515625,-0.6880645751953125,-0.7456207275390625,0
1662,-0.066864013671875,-0.6225433349609375,-0.75439453125,0
1663,-0.0154266357421875,-0.6550140380859375,-0.8385467529296875,0
1664,0.0307159423828125,-0.658172607421875,-0.6832275390625,0
1665,0.09112548828125,-0.6342315673828125,-0.8529205322265625,0
1666,0.038421630859375,-0.6794891357421875,-0.705535888671875,0
1667,-0.002197265625,-0.6748504638671875,-0.771636962890625,0
1668,-0.030426025390625,-0.609527587890625,-0.718292236328125,0
1669,-0.0092926025390625,-0.6305694580078125,-0.8314361572265625,0
1670,0.0064544677734375,-0.644439697265625,-0.7807464599609375,0
1671,0.041900634765625,-0.587493896484375,-0.7889251708984375,0
1672,-0.033843994140625,-0.6633453369140625,-0.760223388671875,0
1673,-0.005401611328125,-0.6427154541015625,-0.785430908203125,0
1674,-0.00897216796875,-0.6478729248046875,-0.8258819580078125,0
1675,-0.0411224365234375,-0.6780548095703125,-0.840972900390625,0
1676,-0.0580902099609375,-0.5776214599609375,-0.816162109375,0
1677,0.022857666015625,-0.7064666748046875,-0.7084808349609375,0
1678,0.0054931640625,-0.6616363525390625,-0.7293853759765625,0
1679,-0.0361175537109375,-0.576324462890625,-0.828155517578125,0
1680,0.096466064453125,-0.6819610595703125,-0.71942138671875,0
1681,-0.08673095703125,-0.6419830322265625,-0.694580078125,0
1682,-0.02667236328125,-0.6356964111328125,-0.8012542724609375,0
1683,-0.005462646484375,-0.6409759521484375,-0.70013427734375,0
1684,-0.00128173828125,-0.718109130859375,-0.7433013916015625,0
1685,-0.0261688232421875,-0.6948394775390625,-0.7286224365234375,0
1686,-0.0286407470703125,-0.5741729736328125,-0.79608154296875,0
1687,0.06927490234375,-0.584136962890625,-0.7790679931640625,0
1688,-0.0269317626953125,-0.6714324951171875,-0.7617645263671875,0
1689,0.050506591796875,-0.674835205078125,-0.705810546875,0
1690,0.0037689208984375,-0.657806396484375,-0.8208160400390625,0
1691,-0.0319366455078125,-0.6716156005859375,-0.7532501220703125,0
1692,-0.094970703125,-0.633056640625,-0.7552032470703125,0
1693,-0.0194091796875,-0.6568450927734375,-0.6529693603515625,0
1694,0.0758209228515625,-0.582916259765625,-0.8011322021484375,0
1695,0.03106689453125,-0.59515380859375,-0.812225341796875,0
1696,-0.0421600341796875,-0.6807861328125,-0.8043060302734375,0
1697,0.11279296875,-0.6308746337890625,-0.71014404296875,0
1698,-0.0335235595703125,-0.6415863037109375,-0.740234375,0
1699,0.013153076171875,-0.608123779296875,-0.7656402587890625,0
1700,0.049285888671875,-0.692535400390625,-0.770416259765625,0
1701,-0.0901641845703125,-0.614044189453125,-0.7103729248046875,0
1702,-0.0688934326171875,-0.6067352294921875,-0.80535888671875,0
1703,0.1317291259765625,-0.6399383544921875,-0.7487945556640625,0
1704,-0.0041656494140625,-0.6527099609375,-0.8028717041015625,0
1705,-0.0068206787109375,-0.676605224609375,-0.7166900634765625,0
1706,-0.0507354736328125,-0.653533935546875,-0.7725067138671875,0
1707,-0.0250701904296875,-0.673980712890625,-0.740081787109375,0
1708,-0.0632781982421875,-0.6979522705078125,-0.651031494140625,0
1709,0.1174163818359375,-0.6242828369140625,-0.8043060302734375,0
1710,0.0682220458984375,-0.624542236328125,-0.7489776611328125,0
1711,0.04339599609375,-0.677093505859375,-0.7010345458984375,0
1712,-0.03369140625,-0.6428985595703125,-0.847808837890625,0
1713,0.0338134765625,-0.629547119140625,-0.75579833984375,0
1714,0.04412841796875,-0.666748046875,-0.7731170654296875,0
1715,0.00579833984375,-0.6939697265625,-0.7706451416015625,0
1716,0.095062255859375,-0.7055816650390625,-0.7700347900390625,0
1717,-0.08502197265625,-0.6640777587890625,-0.789337158203125,0
1718,-0.01690673828125,-0.6249542236328125,-0.815460205078125,0
1719,0.0059356689453125,-0.559326171875,-0.780792236328125,0
1720,-0.0475616455078125,-0.6284637451171875,-0.9227752685546876,0
1721,-0.010528564453125,-0.655303955078125,-0.779510498046875,0
1722,0.0486297607421875,-0.64019775390625,-0.7281951904296875,0
1723,0.1082763671875,-0.711090087890625,-0.7713775634765625,0
1724,0.075897216796875,-0.6563873291015625,-0.7378692626953125,0
1725,0.064453125,-0.68072509765625,-0.6655120849609375,0
1726,0.05743408203125,-0.694427490234375,-0.79876708984375,0
1727,-0.01129150390625,-0.6614990234375,-0.686859130859375,0
1728,-0.0151824951171875,-0.6858367919921875,-0.81927490234375,0
1729,0.00128173828125,-0.674652099609375,-0.7246856689453125,0
1730,-0.0602874755859375,-0.6623077392578125,-0.8538970947265625,0
1731,0.0020904541015625,-0.659454345703125,-0.75323486328125,0
1732,-0.0004119873046875,-0.643768310546875,-0.8397674560546875,0
1733,-0.0618438720703125,-0.5721893310546875,-0.7512054443359375,0
1734,0.0563507080078125,-0.645233154296875,-0.700042724609375,0
1735,0.044769287109375,-0.6802215576171875,-0.75885009765625,0
1736,-0.001922607421875,-0.6668701171875,-0.7746734619140625,0
1737,0.0473785400390625,-0.67626953125,-0.7423248291015625,0
1738,0.03118896484375,-0.651397705078125,-0.7342987060546875,0
1739,-0.0537261962890625,-0.5750579833984375,-0.797119140625,0
1740,0.0570220947265625,-0.6099700927734375,-0.663482666015625,0
1741,-0.0492095947265625,-0.6427459716796875,-0.72418212890625,0
1742,0.0468292236328125,-0.6486663818359375,-0.81915283203125,0
1743,0.001129150390625,-0.550506591796875,-0.67022705078125,0
1744,-0.0027008056640625,-0.7252349853515625,-0.74261474609375,0
1745,0.0564422607421875,-0.6360015869140625,-0.855926513671875,0
1746,-0.0092926025390625,-0.5840301513671875,-0.68585205078125,0
1747,-0.07452392578125,-0.6839447021484375,-0.844940185546875,0
1748,-0.066192626953125,-0.6720123291015625,-0.7546844482421875,0
1749,0.018035888671875,-0.63531494140625,-0.731597900390625,0
1750,0.091156005859375,-0.6403350830078125,-0.70294189453125,0
1751,-0.052154541015625,-0.635650634765625,-0.8003997802734375,0
1752,0.09063720703125,-0.607940673828125,-0.7558135986328125,0
1753,-0.0247344970703125,-0.708740234375,-0.7346038818359375,0
1754,-0.04827880859375,-0.6333770751953125,-0.695281982421875,0
1755,-0.041900634765625,-0.6222076416015625,-0.72125244140625,0
1756,0.036590576171875,-0.693572998046875,-0.732666015625,0
1757,-0.0011444091796875,-0.667205810546875,-0.751251220703125,0
1758,-0.0016632080078125,-0.640472412109375,-0.7382659912109375,0
1759,-0.0381317138671875,-0.6672515869140625,-0.7725372314453125,0
1760,0.0521240234375,-0.6560211181640625,-0.7589263916015625,0
1761,0.0038909912109375,-0.6080474853515625,-0.7996368408203125,0
1762,-0.1137237548828125,-0.69171142578125,-0.7691497802734375,0
1763,-0.05120849609375,-0.682952880859375,-0.7831878662109375,0
1764,0.0046234130859375,-0.657012939453125,-0.7262725830078125,0
1765,0.0405120849609375,-0.7060089111328125,-0.640869140625,0
1766,0.029571533203125,-0.6603546142578125,-0.707733154296875,0
1767,-0.0283050537109375,-0.67572021484375,-0.7230072021484375,0
1768,-0.0319366455078125,-0.683929443359375,-0.8274993896484375,0
1769,0.100738525390625,-0.5076751708984375,-0.967041015625,0
1770,0.0255126953125,-0.5074005126953125,-0.747589111328125,0
1771,-0.0139617919921875,-1.08697509765625,-0.5588836669921875,0
1772,0.1244964599609375,-1.043930053710938,-0.2735443115234375,0
1773,-0.219024658203125,-0.8297119140625,-0.3557281494140625,0
1774,0.3325653076171875,-1.303741455078125,0.028961181640625,0
1775,-0.794891357421875,-1.03863525390625,-2.093399047851562,0
1776,0.08331298828125,-0.6487884521484375,0.1291046142578125,0
1777,0.18316650390625,-0.5391845703125,-0.7820587158203125,1
1778,0.0147705078125,-0.851776123046875,-0.0709075927734375,1
1779,0.286895751953125,-0.58795166015625,0.4892120361328125,1
1780,-0.517333984375,-0.6311492919921875,-0.5858917236328125,1
1781,-0.325103759765625,-1.1492919921875,-0.2091064453125,1
1782,0.04754638671875,-0.9649658203125,0.0261383056640625,1
1783,0.5012054443359375,-0.52301025390625,-0.3959808349609375,1
1784,-0.0607147216796875,-0.868988037109375,-0.110931396484375,1
1785,-0.03948974609375,-0.7432098388671875,-0.6385650634765625,1
1786,-0.0846099853515625,-1.266220092773438,-0.576141357421875,1
1787,-0.1453094482421875,-0.6062774658203125,0.2843475341796875,1
1788,-0.1026611328125,-0.7002410888671875,-0.547393798828125,1
1789,0.2287445068359375,-0.5021209716796875,-0.3295440673828125,1
1790,0.2812042236328125,-1.725616455078125,-0.30029296875,1
1791,-0.0007476806640625,-0.68939208984375,-0.5908355712890625,0
1792,-0.05029296875,-0.0985107421875,-0.2884521484375,0
1793,-1.627166748046875,-1.5291748046875,-1.025909423828125,0
1794,1.951751708984375,-0.3698577880859375,-1.223480224609375,0
1795,-0.158294677734375,-0.517059326171875,-1.158859252929688,0
1796,0.0548095703125,-0.2450103759765625,-0.5489501953125,0
1797,-1.4223480224609382,-0.12860107421875,-0.9895172119140624,0
1798,-0.0103302001953125,-0.3511810302734375,-0.946563720703125,0
1799,0.0557403564453125,-0.586090087890625,-0.95611572265625,0
1800,0.033477783203125,-0.28265380859375,-0.654388427734375,0
1801,-0.0557861328125,-0.6304779052734375,-0.705108642578125,0
1802,-0.4581146240234375,-0.509307861328125,-1.019180297851562,0
1803,-0.08624267578125,-0.4247283935546875,-1.227203369140625,0
1804,-0.1583709716796875,-0.5199432373046875,-0.7957611083984375,0
1805,-0.2555694580078125,-0.62237548828125,-0.7458648681640625,0
1806,0.015228271484375,-0.673309326171875,-1.0421142578125,0
1807,0.1721954345703125,-0.438873291015625,-1.141952514648438,0
1808,-0.07366943359375,-0.681427001953125,-1.042022705078125,0
1809,0.0641021728515625,-0.5719451904296875,-0.9988861083984376,0
1810,0.1535186767578125,-0.1540374755859375,-0.511138916015625,0
1811,-0.0654449462890625,-0.6915740966796875,0.0066375732421875,0
1812,0.068878173828125,-0.5177764892578125,-0.237762451171875,0
1813,0.198974609375,-0.43914794921875,0.1025848388671875,0
1814,-0.178253173828125,-0.757110595703125,-1.617889404296875,0
1815,0.3456573486328125,-1.067398071289062,-0.8827667236328125,0
1816,-0.0042266845703125,-0.8315277099609375,-0.437591552734375,0
1817,-0.1034393310546875,-0.472930908203125,-0.7361297607421875,0
1818,-0.136016845703125,-0.4989166259765625,-1.15252685546875,0
1819,0.0070037841796875,-0.7952880859375,-0.6475677490234375,0
1820,0.0355987548828125,-0.5673675537109375,-0.7794952392578125,0
1821,-0.044281005859375,-0.53875732421875,-0.758026123046875,0
1822,0.1401824951171875,-0.7313079833984375,-0.6111907958984375,0
1823,-0.02105712890625,-0.5626373291015625,-0.5709686279296875,0
1824,0.1059722900390625,-0.5872039794921875,-0.7588653564453125,0
1825,0.060699462890625,-0.6241912841796875,-0.596588134765625,0
1826,-0.03851318359375,-0.5518951416015625,-0.909454345703125,0
1827,-0.12908935546875,-0.6861572265625,-0.9936676025390624,0
1828,0.0160980224609375,-0.500152587890625,-0.7237396240234375,0
1829,-0.014892578125,-0.5249786376953125,-0.674957275390625,0
1830,0.0538787841796875,-0.5393524169921875,-0.93121337890625,0
1831,0.0235595703125,-0.5760650634765625,-0.688720703125,0
1832,0.0878143310546875,-0.6429443359375,-0.9744110107421876,0
1833,-0.0139312744140625,-0.6317901611328125,-0.7027587890625,0
1834,-0.115478515625,-0.55816650390625,-0.5873565673828125,0
1835,0.0391693115234375,-0.5980987548828125,-0.6073455810546875,0
1836,-0.00909423828125,-0.5992889404296875,-1.004638671875,0
1837,0.012298583984375,-0.6512603759765625,-0.87847900390625,0
1838,0.0589752197265625,-0.7535552978515625,-0.5751800537109375,0
1839,-0.0067138671875,-0.41436767578125,-0.732879638671875,0
1840,0.0068359375,-0.5748138427734375,-0.757781982421875,0
1841,0.0066070556640625,-0.580047607421875,-0.6905059814453125,0
1842,-0.0256500244140625,-0.5916748046875,-0.757598876953125,0
1843,0.0216064453125,-0.7089385986328125,-0.77154541015625,0
1844,-0.0269622802734375,-0.602081298828125,-0.804901123046875,0
1845,-0.0936279296875,-0.5486602783203125,-0.9560546875,0
1846,-0.04833984375,-0.7642059326171875,-0.719085693359375,0
1847,0.0404510498046875,-0.497711181640625,-0.8792877197265625,0
1848,0.0040740966796875,-0.685546875,-0.7746734619140625,0
1849,0.053497314453125,-0.6700439453125,-0.77099609375,0
1850,0.0286865234375,-0.7439117431640625,-0.764556884765625,0
1851,0.083953857421875,-0.651153564453125,-0.7234954833984375,0
1852,-0.0498809814453125,-0.720245361328125,-0.7644805908203125,0
1853,0.045654296875,-0.7453765869140625,-0.8806915283203125,0
1854,0.1422119140625,-0.6042022705078125,-0.78802490234375,0
1855,0.006256103515625,-0.694061279296875,-0.6180419921875,0
1856,0.1087799072265625,-0.517486572265625,-0.8683624267578125,0
1857,-0.04156494140625,-0.6362457275390625,-0.77960205078125,0
1858,0.057525634765625,-0.72967529296875,-0.74468994140625,0
1859,0.0937042236328125,-0.7227630615234375,-0.6996917724609375,0
1860,0.1004486083984375,-0.6925048828125,-0.765289306640625,0
1861,0.010986328125,-0.6045074462890625,-0.752105712890625,0
1862,0.088775634765625,-0.657196044921875,-0.6168212890625,0
1863,-0.0216522216796875,-0.6620941162109375,-0.7657470703125,0
1864,-0.074371337890625,-0.6744384765625,-0.8599853515625,0
1865,-0.0708770751953125,-0.662689208984375,-0.7312469482421875,0
1866,-0.0535125732421875,-0.6289825439453125,-0.6860809326171875,0
1867,-0.0545196533203125,-0.5897979736328125,-0.7833709716796875,0
1868,-0.0660247802734375,-0.6333770751953125,-0.81097412109375,0
1869,0.0455780029296875,-0.629486083984375,-0.65032958984375,0
1870,0.1079864501953125,-0.5750732421875,-0.8909912109375,0
1871,0.0248870849609375,-0.669708251953125,-0.7419891357421875,0
1872,0.0938568115234375,-0.5488433837890625,-0.65802001953125,0
1873,-0.0027313232421875,-0.6301116943359375,-0.741455078125,0
1874,-0.0634613037109375,-0.5930023193359375,-0.8017120361328125,0
1875,0.043853759765625,-0.61181640625,-0.786285400390625,0
1876,-0.039215087890625,-0.6735992431640625,-0.7754669189453125,0
1877,0.023223876953125,-0.598876953125,-0.7409210205078125,0
1878,0.05035400390625,-0.6270904541015625,-0.764678955078125,0
1879,-0.088470458984375,-0.6252593994140625,-0.7944488525390625,0
1880,0.0137939453125,-0.6162261962890625,-0.769775390625,0
1881,0.025054931640625,-0.6496429443359375,-0.7534027099609375,0
1882,-0.0075225830078125,-0.671234130859375,-0.711273193359375,0
1883,-0.003692626953125,-0.64739990234375,-0.7889404296875,0
1884,0.0059661865234375,-0.606536865234375,-0.81317138671875,0
1885,0.0315399169921875,-0.6137237548828125,-0.805633544921875,0
1886,0.0587310791015625,-0.6107940673828125,-0.745941162109375,0
1887,0.0200347900390625,-0.6310272216796875,-0.73046875,0
1888,0.0060577392578125,-0.631988525390625,-0.7725982666015625,0
1889,-0.0704498291015625,-0.6355438232421875,-0.8085479736328125,0
1890,0.0258941650390625,-0.6044158935546875,-0.837493896484375,0
1891,-0.052734375,-0.6187591552734375,-0.8284149169921875,0
1892,0.0192413330078125,-0.59112548828125,-0.8340301513671875,0
1893,0.031707763671875,-0.6131439208984375,-0.7790679931640625,0
1894,-0.0297088623046875,-0.662109375,-0.84368896484375,0
1895,0.045501708984375,-0.6069793701171875,-0.7176055908203125,0
1896,-0.0192413330078125,-0.6923065185546875,-0.761962890625,0
1897,0.0243988037109375,-0.67901611328125,-0.81341552734375,0
1898,0.0508880615234375,-0.6571807861328125,-0.802215576171875,0
1899,0.03936767578125,-0.5984039306640625,-0.731597900390625,0
1900,0.0447540283203125,-0.6239013671875,-0.7294158935546875,0
1901,-0.004302978515625,-0.65374755859375,-0.8177032470703125,0
1902,0.052520751953125,-0.621002197265625,-0.7799835205078125,0
1903,-0.0260162353515625,-0.6499786376953125,-0.8045501708984375,0
1904,0.0183258056640625,-0.571441650390625,-0.8343048095703125,0
1905,0.0050811767578125,-0.566070556640625,-0.8479766845703125,0
